high,kesai_angle,beta_angle,alpha_angle,decare_x,decare_y,decare_z,velocity_x,velocity_y,velocity_z,VarName17,VarName18,acceleration_x,acceleration_y,acceleration_z,palstance_x,palstance_y,palstance_z,center_x,center_y,center_z
108.6761388,34.2406587,357.497,178.79,0.82,-0.29,-1690299,5000629,3568748,0,0,-0.016,-0.0045,0.0073,0.0023,0.000176,-0.004409,0.003011,0.961623295121951,-1.7016065304878,0.0628709030487804
108.6761388,34.2406587,357.497,178.79,0.82,-0.29,-1690299,5000629,3568748,0,0,-0.016,-0.0045,0.0073,0.0023,0.000176,-0.004409,0.003011,0.961017158439976,-1.70139297501523,0.0629568056063376
108.6761388,34.2406587,357.49,178.79,0.82,-0.29,-1690299,5000629,3568748,0,0,-0.016,-0.0045,0.0073,0.0023,0.000176,-0.004409,0.003011,0.961884565773447,-1.70171338915956,0.0628395066991473
108.6761388,34.2406587,357.49,178.79,0.82,-0.29,-1690299,5000629,3568748,0,0,-0.017,0.0062,0.0071,0.0021,-0.000744,-0.002943,0.002164,0.961672042579076,-1.70153961435523,0.0628274270072992
108.6761388,34.2406587,357.484,178.79,0.82,-0.29,-1690299,5000629,3568748,0,0,-0.017,0.0062,0.0071,0.0021,-0.000744,-0.002943,0.002164,0.961662400609756,-1.70145683902439,0.0629004847560975
108.6761388,34.2406587,357.484,178.79,0.82,-0.29,-1690299,5000629,3568748,0,0,-0.017,0.0059,-0.0039,-0.0073,0.000357,-0.003715,0.002095,0.962070496039,-1.70190441316271,0.0627326410725167
108.6761388,34.2406587,357.478,178.79,0.82,-0.29,-1690299,5000629,3568748,0,0,-0.017,0.0059,-0.0039,-0.0073,0.000357,-0.003715,0.002095,0.961090829164124,-1.70174108297743,0.0625477150701647
108.6761388,34.2406587,357.478,178.79,0.82,-0.29,-1690299,5000629,3568748,0,0,-0.017,-0.0046,-0.0038,0.0023,-6.9e-05,-0.004511,0.002782,0.961421145731707,-1.70169718963415,0.0629433890243902
108.6761388,34.2406587,357.478,178.79,0.82,-0.29,-1690299,5000629,3568748,0,0,-0.017,-0.0046,-0.0038,0.0023,-6.9e-05,-0.004511,0.002782,0.962019016433354,-1.70169978271455,0.0624631059038344
108.6761388,34.2406587,357.47,178.79,0.82,-0.29,-1690299,5000629,3568748,0,0,-0.017,-0.0047,-0.0038,0.0023,-6.9e-05,-0.004511,0.002782,0.9614278976234,-1.70154088117002,0.0629294881170018
108.6761388,34.2406587,357.47,178.79,0.82,-0.29,-1690299,5000629,3568748,0,0,-0.017,-0.0047,-0.0037,-0.0073,0.000222,-0.002292,0.001854,0.961960827250608,-1.7015628649635,0.0626555456204379
108.6761388,34.2406587,357.462,178.79,0.82,-0.29,-1690299,5000629,3568748,0,0,-0.017,-0.0047,-0.0037,-0.0073,0.000222,-0.002292,0.001854,0.96181949270073,-1.70149189416058,0.0626982682481751
108.6761388,34.2406587,357.462,178.79,0.82,-0.29,-1690299,5000629,3568748,0,0,-0.018,0.0062,-0.0037,-0.0073,0.000179,-0.003135,0.00229,0.961771878271454,-1.70153985514303,0.0627821235544735
108.6761388,34.2406587,357.454,178.79,0.82,-0.29,-1690299,5000629,3568748,0,0,-0.018,0.0062,-0.0037,-0.0073,0.000179,-0.003135,0.00229,0.961978789537713,-1.70199381873479,0.0626771958637469
108.6761388,34.2406587,357.454,178.79,0.82,-0.29,-1690299,5000629,3568748,0,0,-0.018,0.0062,0.0071,0.0023,-0.00104,-0.003884,0.002917,0.961381655508217,-1.70147391539866,0.0630384838709677
108.6761388,34.2406587,357.446,178.79,0.82,-0.29,-1690299,5000629,3568748,0,0,-0.018,0.0062,0.0071,0.0023,-0.00104,-0.003884,0.002917,0.961446015824711,-1.70136732744979,0.0630646463785757
108.6761388,34.2406587,357.446,178.79,0.82,-0.29,-1690299,5000629,3568748,0,0,-0.018,0.0062,0.0071,0.0023,-0.00104,-0.003884,0.002917,0.961606789409617,-1.7013752592818,0.0627398478393183
108.6761388,34.2406587,357.446,178.79,0.82,-0.29,-1690299,5000629,3568748,0,0,-0.018,-0.0045,0.0072,-0.0075,0.001189,-0.002209,0.002783,0.961843215853658,-1.70180874268293,0.062978037804878
108.6761388,34.2406587,357.437,178.79,0.82,-0.29,-1690299,5000629,3568747,0,0,-0.018,-0.0045,0.0072,-0.0075,0.001189,-0.002209,0.002783,0.96128193544458,-1.70144562911084,0.0627876492082825
108.6761388,34.2406587,357.437,178.79,0.82,-0.29,-1690299,5000629,3568747,0,0,-0.019,-0.0045,0.0073,0.0022,0.000384,-0.004211,0.002988,0.961550347958562,-1.70168868799512,0.0629746325411334
108.6761388,34.2406587,357.429,178.79,0.82,-0.29,-1690299,5000629,3568747,0,0,-0.019,-0.0045,0.0073,0.0022,0.000384,-0.004211,0.002988,0.960771647130647,-1.70158738156288,0.0627373113553113
108.6761388,34.2406587,357.429,178.79,0.82,-0.29,-1690299,5000629,3568747,0,0,-0.02,-0.0048,-0.0037,0.0119,0.000226,-0.003486,0.0031,0.961824985992692,-1.701373363581,0.0628681802679659
108.6761388,34.2406587,357.421,178.79,0.82,-0.29,-1690299,5000629,3568747,0,0,-0.02,-0.0048,-0.0037,0.0119,0.000226,-0.003486,0.0031,0.961298674177832,-1.70129809744214,0.0628360840438489
108.6761388,34.2406587,357.421,178.79,0.82,-0.29,-1690299,5000629,3568747,0,0,-0.02,0.0062,-0.0036,0.0023,0.000409,-0.004557,0.0031,0.961359112195122,-1.70150785792683,0.0625455926829268
108.6761388,34.2406587,357.413,178.79,0.82,-0.29,-1690299,5000629,3568747,0,0,-0.02,0.0062,-0.0036,0.0023,0.000409,-0.004557,0.002771,0.961629432744979,-1.70162028788801,0.0628809555690809
108.6761388,34.2406587,357.413,178.79,0.82,-0.29,-1690299,5000629,3568747,0,0,-0.021,0.006,-0.0038,0.0023,0.000409,-0.004557,0.002771,0.961139245731707,-1.70115710914634,0.0628715951219512
108.6761388,34.2406587,357.413,178.79,0.82,-0.29,-1690299,5000629,3568747,0,0,-0.021,0.006,-0.0038,0.0023,0.000101,-0.004655,0.002467,0.961826018292683,-1.70156930060976,0.0626816774390243
108.6761388,34.2406587,357.404,178.79,0.82,-0.29,-1690299,5000629,3568747,0,0,-0.021,0.006,-0.0038,0.0023,0.000101,-0.004655,0.002467,0.961821836982968,-1.70135142153285,0.0628452901459854
108.6761388,34.2406587,357.404,178.79,0.82,-0.29,-1690299,5000629,3568747,0,0,-0.021,-0.0045,0.0072,0.0119,0.000247,-0.002999,0.002446,0.961494385879489,-1.70133278393183,0.0627216421180767
108.6761388,34.2406587,357.395,178.79,0.82,-0.29,-1690299,5000629,3568747,0,0,-0.021,-0.0045,0.0072,0.0119,0.000247,-0.002999,0.002446,0.961751718464351,-1.70182206946984,0.0630477940280316
108.6761388,34.2406587,357.395,178.79,0.82,-0.29,-1690299,5000629,3568747,0,0,-0.021,0.0059,0.0072,-0.0075,0.000282,-0.002634,0.002446,0.961876034692636,-1.70158125197809,0.0626698460133901
108.6761388,34.2406587,357.386,178.79,0.82,-0.29,-1690299,5000629,3568747,0,0,-0.021,0.0059,0.0072,-0.0075,0.000282,-0.002634,0.002102,0.961483792199878,-1.70124667093236,0.0626622309567337
108.6761388,34.2406587,357.386,178.79,0.82,-0.29,-1690299,5000629,3568747,0,0,-0.022,-0.0047,-0.0036,-0.0075,0.000282,-0.002634,0.002102,0.961700806707317,-1.70170302439024,0.0627793884146341
108.6761388,34.2406587,357.386,178.79,0.82,-0.29,-1690299,5000629,3568747,0,0,-0.022,-0.0047,-0.0036,-0.0076,-0.000262,-0.003315,0.002679,0.961232720731707,-1.70160999329268,0.0628880195121951
108.6761388,34.2406587,357.376,178.79,0.82,-0.29,-1690299,5000629,3568747,0,0,-0.022,-0.0047,-0.0036,-0.0076,-0.000262,-0.003315,0.002679,0.961702339013999,-1.70148056542909,0.0630739300060864
108.6761388,34.2406587,357.376,178.79,0.82,-0.29,-1690299,5000629,3568747,0,0,-0.022,0.006,-0.0037,-0.0073,-0.00024,-0.002984,0.002494,0.961666497261108,-1.70175086548996,0.062691710286062
108.6761388,34.2406587,357.367,178.79,0.82,-0.29,-1690299,5000629,3568747,0,0,-0.023,-0.0047,-0.0037,-0.0073,-0.00024,-0.002984,0.002494,0.961802206938527,-1.70175530979915,0.0626256372489348
108.6761388,34.2406587,357.367,178.79,0.82,-0.29,-1690299,5000629,3568747,0,0,-0.023,-0.0047,-0.0038,0.0023,-0.000305,-0.004119,0.002665,0.961674907373553,-1.70152154600853,0.0629000054844606
108.6761388,34.2406587,357.358,178.79,0.82,-0.29,-1690299,5000629,3568747,0,0,-0.023,-0.0047,-0.0038,0.0023,-0.000305,-0.004119,0.002665,0.961452744667885,-1.70150498171846,0.0626359335770871
108.6761388,34.2406587,357.358,178.79,0.82,-0.29,-1690299,5000629,3568747,0,0,-0.022,0.0063,-0.0039,-0.017,-0.001724,-0.002845,0.002701,0.961711283973187,-1.70145894332724,0.06278511456429
108.6761388,34.2406587,357.348,178.79,0.82,-0.29,-1690299,5000629,3568747,0,0,-0.022,0.0063,-0.0039,-0.017,-0.001724,-0.002845,0.002701,0.96144850274223,-1.7016116733699,0.0629157416209628
108.6761388,34.2406587,357.348,178.79,0.82,-0.29,-1690299,5000629,3568747,0,0,-0.023,0.0063,0.0072,-0.017,-1.3e-05,-0.002845,0.002701,0.961788306942753,-1.70162390682095,0.0630173124238733
108.6761387,34.2406587,357.339,178.79,0.82,-0.29,-1690299,5000629,3568747,0,0,-0.023,0.0063,0.0072,-0.017,-1.3e-05,-0.002319,0.00235,0.962010202192448,-1.7016913818514,0.0628474031668696
108.6761387,34.2406587,357.339,178.79,0.82,-0.29,-1690299,5000629,3568747,0,0,-0.023,0.0063,0.0072,-0.017,-1.3e-05,-0.002319,0.00235,0.962054447961047,-1.70164897261108,0.0626517693244065
108.6761387,34.2406587,357.339,178.79,0.82,-0.29,-1690299,5000629,3568747,0,0,-0.024,-0.0048,-0.0037,0.0118,-0.000493,-0.004416,0.002452,0.961580817794028,-1.70148205545399,0.0626829652650822
108.6761387,34.2406587,357.328,178.79,0.82,-0.29,-1690299,5000629,3568747,0,0,-0.024,-0.0048,-0.0037,0.0118,-0.000493,-0.004416,0.002452,0.961757265976872,-1.70160244796105,0.0630472099817407
108.6761387,34.2406587,357.328,178.79,0.82,-0.29,-1690299,5000629,3568747,0,0,-0.024,0.0059,0.0072,-0.0075,-0.000435,-0.003224,0.002261,0.961324424131627,-1.70173873979281,0.0630343449116392
108.6761387,34.2406587,357.318,178.79,0.82,-0.29,-1690299,5000629,3568747,0,0,-0.024,0.0059,0.0072,-0.0075,-0.000435,-0.003224,0.002261,0.9618187013382,-1.70140053041363,0.0626769203163017
108.6761387,34.2406587,357.318,178.79,0.82,-0.29,-1690299,5000629,3568747,0,0,-0.025,-0.0048,-0.0036,0.0023,-0.000435,-0.003224,0.002261,0.961738015824711,-1.70157364272672,0.0630386220328667
108.6761387,34.2406587,357.318,178.79,0.82,-0.29,-1690299,5000629,3568747,0,0,-0.025,-0.0048,-0.0036,0.0023,-5.2e-05,-0.002813,0.002448,0.96194451216545,-1.70179586861314,0.0628739951338199
108.6761387,34.2406587,357.308,178.79,0.82,-0.29,-1690299,5000629,3568747,0,0,-0.025,-0.0048,-0.0036,0.0023,-5.2e-05,-0.002813,0.002448,0.961924854711246,-1.70145353495441,0.0626861696048632
108.6761387,34.2406587,357.308,178.79,0.82,-0.29,-1690299,5000629,3568747,0,0,-0.025,0.0059,-0.0039,-0.0074,0.00052,-0.003737,0.002463,0.961582601829268,-1.70141898780488,0.0628637640243902
108.6761387,34.2406587,357.297,178.79,0.82,-0.29,-1690299,5000629,3568747,0,0,-0.025,0.0059,-0.0039,-0.0074,0.00052,-0.003737,0.002463,0.961337037172456,-1.70174496709324,0.0629391584399756
108.6761387,34.2406587,357.297,178.79,0.82,-0.29,-1690299,5000629,3568747,0,0,-0.026,0.0061,-0.0037,0.0119,0.00052,-0.003737,0.002463,0.961615154595253,-1.70164351673768,0.0627836049908703
108.6761387,34.2406587,357.297,178.79,0.82,-0.29,-1690299,5000629,3568747,0,0,-0.026,0.0061,-0.0037,0.0119,0.000726,-0.003561,0.002347,0.962070276323798,-1.70153897930615,0.0629883043213633
108.6761387,34.2406587,357.285,178.79,0.82,-0.29,-1690299,5000629,3568747,0,0,-0.026,0.0061,-0.0037,0.0119,0.000726,-0.003561,0.002347,0.961721993300852,-1.70169726674787,0.0625485797807551
108.6761387,34.2406587,357.285,178.79,0.82,-0.29,-1690299,5000629,3568747,0,0,-0.026,0.0059,-0.0039,-0.0074,-0.000196,-0.003765,0.002861,0.961787386488131,-1.7014507449787,0.0630206335970785
108.6761387,34.2406587,357.275,178.79,0.82,-0.29,-1690299,5000629,3568747,0,0,-0.026,0.0059,-0.0039,-0.0074,-0.000196,-0.003765,0.002861,0.96156023583181,-1.70154659414991,0.0627071395490554
108.6761387,34.2406587,357.275,178.79,0.82,-0.29,-1690299,5000629,3568747,0,0,-0.026,-0.0048,-0.0039,0.0119,-0.001172,-0.003244,0.002416,0.961260157029824,-1.70162123432745,0.0626889951308581
108.6761387,34.2406587,357.261,178.79,0.82,-0.29,-1690299,5000629,3568747,0,0,-0.026,-0.0048,-0.0039,0.0119,-0.001172,-0.003244,0.002416,0.961909252131547,-1.70141867478685,0.0624141924482338
108.6761387,34.2406587,357.261,178.79,0.82,-0.29,-1690299,5000629,3568747,0,0,-0.026,-0.0047,-0.0037,-0.0073,-0.001172,-0.003244,0.002416,0.961160795856185,-1.70159056611822,0.0626114387568555
108.6761387,34.2406587,357.261,178.79,0.82,-0.29,-1690299,5000629,3568747,0,0,-0.026,-0.0047,-0.0037,-0.0073,0.001403,-0.002834,0.00208,0.961260129640901,-1.70134340231284,0.0630587321972002
108.6761387,34.2406587,357.249,178.79,0.82,-0.29,-1690299,5000629,3568747,0,0,-0.027,-0.0047,-0.0037,-0.0073,0.001403,-0.002834,0.00208,0.961626397685749,-1.70148595736906,0.0627362667478684
108.6761387,34.2406587,357.249,178.79,0.82,-0.29,-1690299,5000629,3568747,0,0,-0.027,0.006,-0.0036,0.0023,0.000986,-0.003422,0.002865,0.961817195863747,-1.70143956569343,0.0627635334549878
108.6761387,34.2406587,357.237,178.79,0.82,-0.29,-1690299,5000629,3568747,0,0,-0.027,0.006,-0.0036,0.0023,0.000986,-0.003422,0.002865,0.961316724832215,-1.70181594447834,0.0627078303843807
108.6761387,34.2406587,357.237,178.79,0.82,-0.29,-1690299,5000629,3568747,0,0,-0.027,0.006,-0.0038,0.0023,0.000272,-0.00193,0.0019,0.961776003656307,-1.70170985923218,0.062970691651432
108.6761387,34.2406587,357.225,178.79,0.82,-0.29,-1690299,5000629,3568747,0,0,-0.027,0.006,-0.0038,0.0023,0.000272,-0.00193,0.0019,0.961342965874467,-1.70157403229738,0.0627189847653869
108.6761387,34.2406587,357.225,178.79,0.82,-0.29,-1690299,5000629,3568747,0,0,-0.028,0.0059,-0.0039,-0.0074,0.000272,-0.00193,0.0019,0.961963788449848,-1.70156225410334,0.0624851568389057
108.6761387,34.2406587,357.225,178.79,0.82,-0.29,-1690299,5000629,3568747,0,0,-0.028,0.0059,-0.0039,-0.0074,0.000262,-0.002196,0.002576,0.961804196591601,-1.70161851491175,0.0630130249543517
108.6761387,34.2406587,357.213,178.79,0.82,-0.29,-1690299,5000629,3568747,0,0,-0.028,0.0059,-0.0039,-0.0074,0.000262,-0.002196,0.002576,0.961625094339623,-1.70164582410225,0.0627118654899574
108.6761387,34.2406587,357.213,178.79,0.82,-0.29,-1690299,5000629,3568747,0,0,-0.029,-0.0048,-0.0037,0.0119,-0.000652,-0.003552,0.002605,0.962137259890444,-1.70178293913573,0.0625552884966524
108.6761387,34.2406587,357.201,178.79,0.82,-0.29,-1690299,5000629,3568747,0,0,-0.029,-0.0048,-0.0037,0.0119,-0.000652,-0.003552,0.002605,0.961459555487805,-1.70196452378049,0.0628022841463414
108.6761387,34.2406587,357.201,178.79,0.82,-0.29,-1690299,5000629,3568747,0,0,-0.029,-0.0047,-0.0036,-0.0073,-0.000332,-0.003552,0.002605,0.961647517639903,-1.70173777980535,0.0629141088807785
108.6761387,34.2406586,357.201,178.79,0.82,-0.29,-1690299,5000629,3568747,0,0,-0.029,-0.0047,-0.0036,-0.0073,-0.000332,-0.002706,0.002391,0.961728575776019,-1.70167494278758,0.0628839178332318
108.6761387,34.2406586,357.188,178.79,0.82,-0.29,-1690299,5000629,3568747,0,0,-0.029,0.006,-0.0036,-0.0073,-0.000332,-0.002706,0.002391,0.962193123479319,-1.70183827189781,0.0627942968369829
108.6761387,34.2406586,357.188,178.79,0.82,-0.29,-1690299,5000629,3568747,0,0,-0.029,0.006,-0.0038,-0.0073,0.000347,-0.00525,0.002933,0.961407097010372,-1.70171812080537,0.0630984813910921
108.6761387,34.2406586,357.174,178.79,0.82,-0.29,-1690299,5000629,3568747,0,0,-0.029,0.006,-0.0038,-0.0073,0.000347,-0.00525,0.002933,0.961682238733252,-1.70178851887942,0.0626673246041412
108.6761387,34.2406586,357.174,178.79,0.82,-0.29,-1690299,5000629,3568747,0,0,-0.029,-0.0044,-0.0041,-0.0171,0.000264,-0.00525,0.002933,0.962052317102861,-1.70216494826537,0.0627222178940961
108.6761387,34.2406586,357.162,178.79,0.82,-0.29,-1690299,5000629,3568747,0,0,-0.029,-0.0044,-0.0041,-0.0171,0.000264,-0.002607,0.002554,0.96208646772229,-1.70196719853837,0.0631671814859927
108.6761387,34.2406586,357.162,178.79,0.82,-0.29,-1690299,5000629,3568747,0,0,-0.03,-0.0045,-0.0041,-0.0171,0.000264,-0.002607,0.002554,0.962100000609014,-1.70221677831912,0.063000059683313
108.6761387,34.2406586,357.162,178.79,0.82,-0.29,-1690299,5000629,3568747,0,0,-0.03,-0.0045,0.0073,0.0023,-0.00026,-0.002564,0.00195,0.961860920219245,-1.70204846224117,0.0629116205846528
108.6761387,34.2406586,357.147,178.79,0.82,-0.29,-1690299,5000629,3568747,0,0,-0.03,-0.0045,0.0073,0.0023,-0.00026,-0.002564,0.00195,0.961915871951219,-1.70183408963415,0.0629015536585365
108.6761387,34.2406586,357.147,178.79,0.82,-0.29,-1690299,5000629,3568747,0,0,-0.031,0.0059,-0.0039,-0.0074,-0.000198,-0.002211,0.00195,0.961946614259598,-1.70200240341255,0.0627343595368677
108.6761387,34.2406586,357.133,178.79,0.82,-0.29,-1690299,5000629,3568747,0,0,-0.031,0.0059,-0.0039,-0.0074,-0.000198,-0.002211,0.002731,0.96171877236762,-1.70171449969568,0.0628527078514911
108.6761387,34.2406586,357.133,178.79,0.82,-0.29,-1690299,5000629,3568747,0,0,-0.031,0.0059,-0.0039,-0.0074,-0.000198,-0.002211,0.002731,0.961879965853658,-1.70191564207317,0.0629081786585365
108.6761387,34.2406586,357.133,178.79,0.82,-0.29,-1690299,5000629,3568747,0,0,-0.031,-0.0048,0.007,-0.0076,0.000901,-0.003599,0.002343,0.961538649817296,-1.70211601400731,0.0625774470158343
108.6761387,34.2406586,357.119,178.79,0.82,-0.29,-1690299,5000629,3568747,0,0,-0.031,-0.0048,0.007,-0.0076,0.000901,-0.003599,0.002343,0.961522809029896,-1.70173479194631,0.0627766461256864
108.6761387,34.2406586,357.119,178.79,0.82,-0.29,-1690299,5000629,3568747,0,0,-0.031,-0.0047,-0.0036,0.0023,0.000594,-0.002289,0.002139,0.962001229737965,-1.70201254966484,0.0627390761730652
108.6761387,34.2406586,357.106,178.79,0.82,-0.29,-1690299,5000629,3568747,0,0,-0.031,-0.0047,-0.0036,0.0023,0.000594,-0.002289,0.002139,0.961483540803898,-1.70184965408039,0.0624744896467722
108.6761387,34.2406586,357.106,178.79,0.82,-0.29,-1690299,5000629,3568747,0,0,-0.031,-0.0049,-0.0039,-0.017,0.000156,-0.004875,0.002956,0.96194865956151,-1.70188647198538,0.0632216644336175
108.6761387,34.2406586,357.092,178.79,0.82,-0.29,-1690299,5000629,3568747,0,0,-0.031,-0.0049,-0.0039,-0.017,0.000156,-0.004875,0.002956,0.962073156421181,-1.70194140292149,0.0628626482045039
108.6761387,34.2406586,357.092,178.79,0.82,-0.29,-1690299,5000629,3568747,0,0,-0.032,0.0059,-0.0037,-0.0073,0.000156,-0.004875,0.002956,0.962051193666261,-1.70217256577345,0.0630077448233861
108.6761387,34.2406586,357.092,178.79,0.82,-0.29,-1690299,5000629,3568747,0,0,-0.032,0.0059,-0.0037,-0.0073,-0.000946,-0.00313,0.00259,0.96219871498173,-1.70206048538368,0.0625160310596833
108.6761387,34.2406586,357.077,178.79,0.82,-0.29,-1690299,5000629,3568747,0,0,-0.032,0.0059,-0.0037,-0.0073,-0.000946,-0.00313,0.00259,0.962185232643118,-1.70198709926918,0.0628828922046285
108.6761387,34.2406586,357.077,178.79,0.82,-0.29,-1690299,5000629,3568747,0,0,-0.033,0.0059,-0.0039,-0.0075,0.001449,-0.002821,0.00259,0.961646739183425,-1.70161400914077,0.0630670097501523
108.6761387,34.2406586,357.062,178.79,0.82,-0.29,-1690299,5000629,3568747,0,0,-0.033,0.0059,-0.0039,-0.0075,0.001449,-0.002821,0.001767,0.961876974421437,-1.70202921498173,0.0628599872107186
108.6761387,34.2406586,357.062,178.79,0.82,-0.29,-1690299,5000629,3568747,0,0,-0.033,-0.0047,-0.0036,-0.0075,0.001449,-0.002821,0.001767,0.961759678854357,-1.70175841072517,0.0630807824497257
108.6761387,34.2406586,357.062,178.79,0.82,-0.29,-1690299,5000629,3568747,0,0,-0.033,-0.0047,-0.0036,0.0021,0.000832,-0.00231,0.001987,0.961985925045704,-1.70215110481414,0.0628103826934795
108.6761387,34.2406586,357.047,178.79,0.82,-0.29,-1690299,5000629,3568747,0,0,-0.033,-0.0047,-0.0036,0.0021,0.000832,-0.00231,0.001987,0.961194443902439,-1.70184420792683,0.0629064634146341
108.6761387,34.2406586,357.047,178.79,0.82,-0.29,-1690299,5000629,3568747,0,0,-0.034,-0.0047,-0.0036,0.0023,-0.002065,-0.004872,0.001106,0.962012343483557,-1.70174630267966,0.0627382807551766
108.6761387,34.2406586,357.031,178.79,0.82,-0.29,-1690299,5000629,3568747,0,0,-0.034,-0.0047,-0.0036,0.0023,-0.002065,-0.004872,0.001106,0.961931580389769,-1.70219678319123,0.0629964701583434
108.6761387,34.2406586,357.031,178.79,0.82,-0.29,-1690299,5000629,3568747,0,0,-0.034,-0.0048,-0.0037,-0.0073,-0.000615,-0.004605,0.001106,0.961758931707317,-1.702015825,0.0629211262195122
108.6761387,34.2406586,357.016,178.79,0.82,-0.29,-1690299,5000629,3568747,0,0,-0.034,-0.0048,-0.0037,-0.0073,-0.000615,-0.004605,0.002459,0.961609282317073,-1.70183092012195,0.0630723871951219
108.6761387,34.2406586,357.016,178.79,0.82,-0.29,-1690299,5000629,3568747,0,0,-0.035,-0.0045,-0.0037,-0.0073,-0.000615,-0.004605,0.002459,0.961894045703839,-1.70169322547227,0.0630821316270566
108.6761387,34.2406586,357.016,178.79,0.82,-0.29,-1690299,5000629,3568747,0,0,-0.035,-0.0045,0.0073,0.0023,0.000334,-0.00161,0.002366,0.961887394528875,-1.70164424133739,0.0628151902735562
108.6761387,34.2406586,357,178.79,0.82,-0.29,-1690299,5000629,3568747,0,0,-0.035,-0.0045,0.0073,0.0023,0.000334,-0.00161,0.002366,0.961444744058501,-1.70184944119439,0.062604269957343
108.6761387,34.2406586,357,178.79,0.82,-0.29,-1690299,5000629,3568747,0,0,-0.035,-0.0047,0.007,-0.0171,-0.001131,-0.005551,0.002366,0.961902402676399,-1.70198389476886,0.0628620650851581
108.6761387,34.2406586,356.986,178.79,0.82,-0.29,-1690299,5000629,3568747,0,0,-0.035,-0.0047,0.007,-0.0171,-0.001131,-0.005551,0.001855,0.961698921437272,-1.70185018331303,0.0628646906211936
108.6761387,34.2406586,356.986,178.79,0.82,-0.29,-1690299,5000629,3568747,0,0,-0.035,0.006,-0.0038,-0.0171,-0.001131,-0.005551,0.001855,0.961713356707317,-1.7019779902439,0.0629305804878048
108.6761387,34.2406586,356.986,178.79,0.82,-0.29,-1690299,5000629,3568747,0,0,-0.035,0.006,-0.0038,-0.0171,0.001133,-0.003478,0.002779,0.961808869221411,-1.70216854014599,0.0624605328467153
108.6761387,34.2406586,356.97,178.79,0.82,-0.29,-1690299,5000629,3568747,0,0,-0.035,0.006,-0.0038,-0.0171,0.001133,-0.003478,0.002779,0.961971560707749,-1.70205150579622,0.0629393404514948
108.6761387,34.2406586,356.97,178.79,0.82,-0.29,-1690299,5000629,3568747,0,0,-0.035,-0.0046,-0.0035,-0.0172,-4.9e-05,-0.003478,0.002779,0.961712875,-1.70218637621951,0.0628068012195122
108.6761387,34.2406586,356.953,178.79,0.82,-0.29,-1690299,5000629,3568747,0,0,-0.035,-0.0046,-0.0035,-0.0172,-4.9e-05,-0.003478,0.002659,0.962047525867316,-1.70189359464394,0.0626664674376141
108.6761387,34.2406586,356.953,178.79,0.82,-0.29,-1690299,5000629,3568747,0,0,-0.036,-0.0046,-0.0035,-0.0172,-4.9e-05,-0.003478,0.002659,0.962033659963437,-1.70178353260207,0.0627450767824497
108.6761387,34.2406586,356.953,178.79,0.82,-0.29,-1690299,5000629,3568747,0,0,-0.036,-0.0046,-0.0035,-0.0172,-0.000671,-0.004636,0.002173,0.96192824908648,-1.7023020816078,0.0630581869671132
108.6761387,34.2406586,356.939,178.79,0.82,-0.29,-1690299,5000629,3568747,0,0,-0.037,-0.0046,-0.0035,-0.0172,-0.000671,-0.004636,0.002173,0.961892374162096,-1.70221317123705,0.062703453382084
108.6761387,34.2406586,356.939,178.79,0.82,-0.29,-1690299,5000629,3568747,0,0,-0.037,0.0059,-0.0039,0.0118,-0.000815,-0.002883,0.002326,0.96155734409257,-1.70220872777101,0.0627550438489646
108.6761387,34.2406586,356.922,178.79,0.82,-0.29,-1690299,5000629,3568747,0,0,-0.037,0.0059,-0.0039,0.0118,-0.000815,-0.002883,0.002326,0.96201908902439,-1.70209491097561,0.0628153024390243
108.6761387,34.2406586,356.922,178.79,0.82,-0.29,-1690299,5000629,3568747,0,0,-0.037,0.006,-0.0038,-0.0075,-0.000687,-0.003722,0.002734,0.962024454656117,-1.70194428301887,0.0627060523432744
108.6761387,34.2406586,356.905,178.79,0.82,-0.29,-1690299,5000629,3568747,0,0,-0.037,0.006,-0.0038,-0.0075,-0.000687,-0.003722,0.002734,0.962083318902439,-1.70227753963415,0.0627703140243902
108.6761387,34.2406586,356.905,178.79,0.82,-0.29,-1690299,5000629,3568747,0,0,-0.037,0.006,0.0073,-0.0075,-0.000687,-0.003722,0.002734,0.96212835483871,-1.70200019720024,0.062338097991479
108.6761386,34.2406586,356.905,178.79,0.82,-0.29,-1690299,5000629,3568747,0,0,-0.037,0.006,0.0073,0.0022,0.000321,-0.003759,0.002556,0.961990663215591,-1.70205608891596,0.0630594591961023
108.6761386,34.2406586,356.888,178.79,0.82,-0.29,-1690299,5000629,3568747,0,0,-0.038,0.006,0.0073,0.0022,0.000321,-0.003759,0.002556,0.961959995734308,-1.702261023766,0.0627434076782449
108.6761386,34.2406586,356.888,178.79,0.82,-0.29,-1690299,5000629,3568747,0,0,-0.038,-0.0046,0.0072,-0.0075,0.001012,-0.003548,0.002289,0.961605164333536,-1.70208667924528,0.0626506335970785
108.6761386,34.2406586,356.871,178.79,0.82,-0.29,-1690299,5000629,3568747,0,0,-0.038,-0.0046,0.0072,-0.0075,0.001012,-0.003548,0.002289,0.961252568292683,-1.70207940914634,0.0627339237804878
108.6761386,34.2406586,356.871,178.79,0.82,-0.29,-1690299,5000629,3568747,0,0,-0.038,0.006,0.0073,0.0022,0.001012,-0.003548,0.002289,0.961906906154784,-1.70223888604509,0.0630623522242535
108.6761386,34.2406586,356.871,178.79,0.82,-0.29,-1690299,5000629,3568747,0,0,-0.038,0.006,0.0073,0.0022,-0.000773,-0.00315,0.00224,0.96180683709579,-1.70191371201952,0.0629277754728492
108.6761386,34.2406586,356.855,178.79,0.82,-0.29,-1690299,5000629,3568747,0,0,-0.039,0.006,0.0073,0.0022,-0.000773,-0.00315,0.00224,0.962153450944546,-1.70200684399756,0.0626377178549664
108.6761386,34.2406586,356.855,178.79,0.82,-0.29,-1690299,5000629,3568747,0,0,-0.039,0.006,0.0073,0.0022,2.1e-05,-0.003352,0.002234,0.961898220731707,-1.70207118719512,0.0627513762195122
108.6761386,34.2406586,356.837,178.79,0.82,-0.29,-1690299,5000629,3568747,0,0,-0.039,0.006,0.0073,0.0022,2.1e-05,-0.003352,0.002234,0.962085171132765,-1.7020125091352,0.0632278514007308
108.6761386,34.2406586,356.837,178.79,0.82,-0.29,-1690299,5000629,3568747,0,0,-0.04,-0.0045,0.0073,0.0022,0.00112,-0.002601,0.002117,0.961878318320146,-1.70216596774194,0.0627136908094948
108.6761386,34.2406586,356.818,178.79,0.82,-0.29,-1690299,5000629,3568747,0,0,-0.04,-0.0045,0.0073,0.0022,0.00112,-0.002601,0.002117,0.962225910583942,-1.70179061313869,0.0628423753041362
108.6761386,34.2406586,356.818,178.79,0.82,-0.29,-1690299,5000629,3568747,0,0,-0.04,0.0058,-0.0041,0.0022,0.00112,-0.002601,0.002117,0.961535612804878,-1.70220959695122,0.0625060963414634
108.6761386,34.2406586,356.818,178.79,0.82,-0.29,-1690299,5000629,3568747,0,0,-0.04,0.0058,-0.0041,0.0022,-0.001228,-0.005004,0.002317,0.961622194275274,-1.70225478258222,0.0628413447015834
108.6761386,34.2406586,356.801,178.79,0.82,-0.29,-1690299,5000629,3568747,0,0,-0.04,0.0058,-0.0041,0.0022,-0.001228,-0.005004,0.002317,0.961909816077954,-1.70192352557856,0.0629078495736906
108.6761386,34.2406586,356.801,178.79,0.82,-0.29,-1690299,5000629,3568747,0,0,-0.04,0.006,-0.0036,0.0023,-6.8e-05,-0.001582,0.002317,0.962507266423358,-1.70190841058394,0.0628100523114355
108.6761386,34.2406586,356.783,178.79,0.82,-0.29,-1690299,5000629,3568747,0,0,-0.04,0.006,-0.0036,0.0023,-6.8e-05,-0.001582,0.002357,0.96189137454324,-1.70222354202192,0.0631761887941534
108.6761386,34.2406586,356.783,178.79,0.82,-0.29,-1690299,5000629,3568747,0,0,-0.04,-0.0045,0.0073,0.0023,-6.8e-05,-0.001582,0.002357,0.962023196711328,-1.70216691900122,0.0632294147381242
108.6761386,34.2406586,356.783,178.79,0.82,-0.29,-1690299,5000629,3568747,0,0,-0.04,-0.0045,0.0073,0.0022,0.00047,-0.002976,0.002517,0.962045803527981,-1.702287993309,0.0626793388077858
108.6761386,34.2406586,356.765,178.79,0.82,-0.29,-1690299,5000629,3568747,0,0,-0.04,-0.0045,0.0073,0.0022,0.00047,-0.002976,0.002517,0.962403431444241,-1.70234834369287,0.0627531505179768
108.6761386,34.2406586,356.765,178.79,0.82,-0.29,-1690299,5000629,3568747,0,0,-0.04,0.0061,-0.0037,-0.0075,-0.001045,-0.003511,0.00248,0.962137110705596,-1.70196529501217,0.062931600973236
108.6761386,34.2406586,356.748,178.79,0.82,-0.29,-1690299,5000629,3568747,0,0,-0.04,0.0061,-0.0037,-0.0075,-0.001045,-0.003511,0.00248,0.962224900182593,-1.70214125319537,0.0627601211199026
108.6761386,34.2406586,356.748,178.79,0.82,-0.29,-1690299,5000629,3568747,0,0,-0.041,0.006,0.0072,-0.0075,-2.9e-05,-0.003511,0.00248,0.96226650365408,-1.70198749634592,0.0627076169305724
108.6761386,34.2406586,356.729,178.79,0.82,-0.29,-1690299,5000629,3568747,0,0,-0.041,0.006,0.0072,-0.0075,-2.9e-05,-0.002786,0.00198,0.961748101219512,-1.70210928597561,0.0629252975609756
108.6761386,34.2406586,356.729,178.79,0.82,-0.29,-1690299,5000629,3568747,0,0,-0.042,0.006,0.0072,-0.0075,-2.9e-05,-0.002786,0.00198,0.962168093788063,-1.70225402862363,0.0628098215590742
108.6761386,34.2406586,356.729,178.79,0.82,-0.29,-1690299,5000629,3568747,0,0,-0.042,0.006,-0.0038,-0.0075,5e-05,-0.0025,0.002129,0.961991852009744,-1.70226543118149,0.0631742990255785
108.6761386,34.2406586,356.71,178.79,0.82,-0.29,-1690299,5000629,3568747,0,0,-0.042,0.006,-0.0038,-0.0075,5e-05,-0.0025,0.002129,0.962249484441733,-1.70249222940818,0.0629101238560097
108.6761386,34.2406586,356.71,178.79,0.82,-0.29,-1690299,5000629,3568747,0,0,-0.042,-0.0045,0.0073,0.0022,0.000522,-0.003754,0.002465,0.961918312233719,-1.70225398234936,0.0628665727328058
108.6761386,34.2406586,356.691,178.79,0.82,-0.29,-1690299,5000629,3568747,0,0,-0.042,-0.0045,0.0073,0.0022,0.000522,-0.003754,0.002465,0.96202070541692,-1.7022632550213,0.0630657078514911
108.6761386,34.2406586,356.691,178.79,0.82,-0.29,-1690299,5000629,3568747,0.001,0,-0.042,0.006,0.0073,0.0022,0.000522,-0.003754,0.002465,0.962223638025594,-1.7025890670323,0.0627758970140158
108.6761386,34.2406586,356.691,178.79,0.82,-0.29,-1690299,5000629,3568747,0.001,0,-0.042,0.006,0.0072,-0.0075,0.001405,-0.005217,0.002011,0.961557822560976,-1.70224247560976,0.062725193902439
108.6761386,34.2406586,356.674,178.79,0.82,-0.29,-1690299,5000629,3568747,0.001,0,-0.043,0.006,0.0072,-0.0075,0.001405,-0.005217,0.002011,0.961793413414634,-1.70241138841463,0.0629312365853658
108.6761386,34.2406586,356.674,178.79,0.82,-0.29,-1690299,5000629,3568747,0.001,0,-0.043,0.0059,-0.0039,-0.0074,4.2e-05,-0.002584,0.002228,0.962135110365854,-1.7028811554878,0.062967906707317
108.6761386,34.2406586,356.652,178.79,0.82,-0.29,-1690299,5000629,3568747,0.001,0,-0.043,0.0059,-0.0039,-0.0074,4.2e-05,-0.002584,0.002228,0.96248794275274,-1.70280163093788,0.0629065353227771
108.6761386,34.2406586,356.652,178.79,0.82,-0.29,-1690299,5000629,3568747,0,0,-0.043,0.0061,-0.0037,-0.0074,4.2e-05,-0.002584,0.002228,0.962416898903776,-1.70242762180268,0.0631685024360535
108.6761386,34.2406586,356.652,178.79,0.82,-0.29,-1690299,5000629,3568747,0,0,-0.043,0.0061,-0.0037,-0.0075,-0.002444,-0.003292,0.003879,0.962451232175503,-1.70256023400366,0.0630370371724558
108.6761386,34.2406586,356.634,178.79,0.82,-0.29,-1690299,5000629,3568747,0,0,-0.043,0.0061,-0.0037,-0.0075,-0.002444,-0.003292,0.003879,0.96179521402439,-1.70246767621951,0.0625769853658536
108.6761386,34.2406586,356.634,178.79,0.82,-0.29,-1690299,5000629,3568747,0,0,-0.044,0.0061,-0.0037,-0.0075,0.001317,-0.004203,0.001626,0.962185062652068,-1.70224690206813,0.0627351411192214
108.6761386,34.2406585,356.614,178.79,0.82,-0.29,-1690299,5000629,3568747,0,0,-0.044,0.0061,-0.0037,-0.0075,0.001317,-0.004203,0.001626,0.962344934226553,-1.70224293970767,0.0628318915956151
108.6761386,34.2406585,356.614,178.79,0.82,-0.29,-1690299,5000629,3568747,0,0,-0.045,0.0061,-0.0037,-0.0075,0.001317,-0.004203,0.001626,0.962262831200488,-1.70195316819013,0.0627907215112736
108.6761386,34.2406585,356.614,178.79,0.82,-0.29,-1690299,5000629,3568747,0,0,-0.045,-0.0045,0.0073,-0.0074,0.001219,-0.004614,0.002686,0.961935736906212,-1.70231733495737,0.0628101717417783
108.6761386,34.2406585,356.594,178.79,0.82,-0.29,-1690299,5000629,3568747,0,0,-0.045,-0.0045,0.0073,-0.0074,0.001219,-0.004614,0.002686,0.962114233394272,-1.70239622669104,0.0629030231566118
108.6761386,34.2406585,356.594,178.79,0.82,-0.29,-1690299,5000629,3568747,0,0,-0.044,-0.0045,0.0073,-0.0171,0.00011,-0.00159,0.002421,0.962330691463415,-1.70277289329268,0.0629201426829268
108.6761386,34.2406585,356.574,178.79,0.82,-0.29,-1690299,5000629,3568747,0,0,-0.044,-0.0045,0.0073,-0.0171,0.00011,-0.00159,0.002421,0.96220336153378,-1.70219746682897,0.0629425818624467
108.6761386,34.2406585,356.574,178.79,0.82,-0.29,-1690299,5000629,3568747,0,0,-0.045,-0.0045,0.0073,-0.0171,0.00011,-0.00159,0.002421,0.961768987210719,-1.70214992935445,0.0628868337393422
108.6761386,34.2406585,356.574,178.79,0.82,-0.29,-1690299,5000629,3568747,0,0,-0.045,-0.0045,-0.0039,-0.0074,-0.000749,-0.00316,0.00283,0.962125907982937,-1.70267863985375,0.062901564290067
108.6761386,34.2406585,356.553,178.79,0.82,-0.29,-1690299,5000629,3568747,0,0,-0.045,-0.0046,0.0072,-0.0074,-0.000749,-0.00316,0.00283,0.961426908480781,-1.70210578767541,0.0626216985967053
108.6761386,34.2406585,356.553,178.79,0.82,-0.29,-1690299,5000629,3568747,0,0,-0.045,-0.0046,0.0072,-0.0075,0.00104,-0.003222,0.002439,0.961305984737485,-1.70277894871795,0.0628991361416361
108.6761386,34.2406585,356.535,178.79,0.82,-0.29,-1690299,5000629,3568747,0,0,-0.045,-0.0046,0.0072,-0.0075,0.00104,-0.003222,0.002439,0.961702252131547,-1.70241950548112,0.0626457771010962
108.6761386,34.2406585,356.535,178.79,0.82,-0.29,-1690299,5000629,3568747,0,0,-0.046,-0.0046,-0.0035,-0.0171,0.000774,-0.003638,0.002439,0.962620177831912,-1.70274230694275,0.0627313392204628
108.6761385,34.2406585,356.511,178.79,0.82,-0.29,-1690299,5000629,3568747,0,0,-0.046,-0.0046,-0.0035,-0.0171,0.000774,-0.003638,0.002508,0.962429581607795,-1.70251467417783,0.0628266991473812
108.6761385,34.2406585,356.511,178.79,0.82,-0.29,-1690299,5000629,3568747,0,0,-0.046,-0.0048,-0.0035,-0.0171,0.000774,-0.003638,0.002508,0.962346434491164,-1.70256461608775,0.0629024862888482
108.6761385,34.2406585,356.511,178.79,0.82,-0.29,-1690299,5000629,3568747,0,0,-0.046,-0.0048,-0.0037,-0.0073,-0.000949,-0.004409,0.00194,0.961684642682927,-1.70236044207317,0.0628776548780487
108.6761385,34.2406585,356.49,178.79,0.82,-0.29,-1690299,5000629,3568747,0,0,-0.046,-0.0048,-0.0037,-0.0073,-0.000949,-0.004409,0.00194,0.961920280926264,-1.70252239792809,0.0627295837903717
108.6761385,34.2406585,356.49,178.79,0.82,-0.29,-1690299,5000629,3568747,0.001,0,-0.047,0.0061,-0.0037,0.0119,-0.000558,-0.002145,0.002777,0.962246288496652,-1.70256749665247,0.0630897340231284
108.6761385,34.2406585,356.469,178.79,0.82,-0.29,-1690299,5000629,3568747,0.001,0,-0.047,0.0061,-0.0037,0.0119,-0.000558,-0.002145,0.002777,0.962207494512195,-1.70251539573171,0.0627540603658536
108.6761385,34.2406585,356.469,178.79,0.82,-0.29,-1690299,5000629,3568747,0,0,-0.048,0.0061,-0.0037,0.0119,-0.000558,-0.002145,0.002777,0.962336137111517,-1.70249320901889,0.0629387483241925
108.6761385,34.2406585,356.469,178.79,0.82,-0.29,-1690299,5000629,3568747,0,0,-0.048,0.006,-0.0038,0.0023,0.00063,-0.004289,0.002612,0.962208580841977,-1.70261506772422,0.0628179524100061
108.6761385,34.2406585,356.45,178.79,0.82,-0.29,-1690299,5000629,3568747,0,0,-0.048,0.006,-0.0038,0.0023,0.00063,-0.004289,0.002612,0.962136254113346,-1.70208950883608,0.062971030469226
108.6761385,34.2406585,356.45,178.79,0.82,-0.29,-1690299,5000629,3568747,0,0,-0.048,-0.0047,-0.0036,-0.0074,0.000543,-0.002302,0.002418,0.962094269347958,-1.70225433759903,0.0629633491773309
108.6761385,34.2406585,356.428,178.79,0.82,-0.29,-1690299,5000629,3568747,0,0,-0.048,-0.0047,-0.0036,-0.0074,0.000543,-0.002302,0.002418,0.962180356707317,-1.70229789085366,0.0629090573170731
108.6761385,34.2406585,356.428,178.79,0.82,-0.29,-1690299,5000629,3568747,0.001,0,-0.048,0.0062,0.0071,-0.0073,-0.000109,-0.004736,0.002853,0.96221749634592,-1.70254930816078,0.0628956985383678
108.6761385,34.2406585,356.409,178.79,0.82,-0.29,-1690299,5000629,3568747,0.001,0,-0.048,0.0062,0.0071,-0.0073,-0.000109,-0.004736,0.002853,0.962379369829684,-1.70238449209246,0.0628769933090024
108.6761385,34.2406585,356.409,178.79,0.82,-0.29,-1690299,5000629,3568747,0,0,-0.048,-0.0047,-0.0036,-0.0076,0.000858,-0.004736,0.002853,0.962155196102314,-1.70251015347138,0.0631948897685749
108.6761385,34.2406585,356.389,178.79,0.82,-0.29,-1690299,5000629,3568747,0,0,-0.048,-0.0047,-0.0036,-0.0076,0.000858,-0.004862,0.002722,0.961783798903108,-1.70216174040219,0.0628064442413162
108.6761385,34.2406585,356.389,178.79,0.82,-0.29,-1690299,5000629,3568747,0,0,-0.049,-0.0048,-0.0036,-0.0076,0.000858,-0.004862,0.002722,0.961774604750304,-1.70212860718636,0.0632261796589525
108.6761385,34.2406585,356.389,178.79,0.82,-0.29,-1690299,5000629,3568747,0,0,-0.049,-0.0048,0.0073,0.0022,-0.00096,-0.002258,0.001965,0.962123780755177,-1.70229362667479,0.0630532795371498
108.6761385,34.2406585,356.367,178.79,0.82,-0.29,-1690299,5000629,3568747,0,0,-0.049,-0.0048,0.0073,0.0022,-0.00096,-0.002258,0.001965,0.962143961023143,-1.70223835322777,0.0631620182704019
108.6761385,34.2406585,356.367,178.79,0.82,-0.29,-1690299,5000629,3568747,0,0,-0.05,-0.0045,0.0073,0.0023,-0.001085,-0.002623,0.002402,0.96179916138855,-1.70212234226553,0.0628108069427527
108.6761385,34.2406585,356.344,178.79,0.82,-0.29,-1690299,5000629,3568747,0,0,-0.05,-0.0045,0.0073,0.0023,-0.001085,-0.002623,0.002402,0.962269024984765,-1.70257322242535,0.0625975770871419
108.6761385,34.2406585,356.344,178.79,0.82,-0.29,-1690299,5000629,3568747,0,0,-0.05,0.0062,0.0073,0.0023,-0.001085,-0.002623,0.002402,0.962064330291971,-1.70227859184915,0.0625394434306569
108.6761385,34.2406585,356.344,178.79,0.82,-0.29,-1690299,5000629,3568747,0,0,-0.05,0.0062,0.0071,0.0021,-0.001005,-0.003966,0.00213,0.962015156516443,-1.70223850060901,0.063080490864799
108.6761385,34.2406585,356.324,178.79,0.82,-0.29,-1690299,5000629,3568747,0,0,-0.05,0.0062,0.0071,0.0021,-0.001005,-0.003966,0.00213,0.962052341671751,-1.70221898169616,0.0631431220256253
108.6761385,34.2406585,356.324,178.79,0.82,-0.29,-1690299,5000629,3568747,0,0,-0.05,-0.0048,0.0069,-0.0076,0.0001,-0.002774,0.002604,0.962118791235545,-1.70227301217285,0.0630396463785757
108.6761385,34.2406585,356.298,178.79,0.82,-0.29,-1690299,5000629,3568747,0,0,-0.05,-0.0048,0.0069,-0.0076,0.0001,-0.002774,0.002604,0.962107684948202,-1.70259182632541,0.0630090907982937
108.6761385,34.2406585,356.298,178.79,0.82,-0.29,-1690299,5000629,3568747,0,0,-0.051,-0.0049,-0.0039,0.0021,0.001187,-0.004327,0.002604,0.962327552375152,-1.70228971498173,0.0629831370280146
108.6761385,34.2406585,356.278,178.79,0.82,-0.29,-1690299,5000629,3568747,0,0,-0.051,-0.0049,-0.0039,0.0021,0.001187,-0.004327,0.002697,0.961902857404022,-1.7024334369287,0.062711563071298
108.6761385,34.2406585,356.278,178.79,0.82,-0.29,-1690299,5000628,3568747,0,0,-0.051,-0.0045,0.0073,0.0021,0.001187,-0.004327,0.002697,0.961478124314442,-1.70222434795856,0.062544268738574
108.6761385,34.2406585,356.278,178.79,0.82,-0.29,-1690299,5000628,3568747,0,0,-0.051,-0.0045,0.0073,0.0022,0.000582,-0.003891,0.001895,0.962373820450396,-1.70231014911747,0.0630934923919659
108.6761385,34.2406585,356.255,178.79,0.82,-0.29,-1690299,5000628,3568747,0,0,-0.051,-0.0045,0.0073,0.0022,0.000582,-0.003891,0.001895,0.961931349177331,-1.70251469652651,0.0630141194393662
108.6761385,34.2406585,356.255,178.79,0.82,-0.29,-1690299,5000628,3568747,0.001,0,-0.051,0.0061,0.007,0.0023,-0.001383,-0.003225,0.001895,0.962239853317103,-1.70248410225198,0.0628771801582471
108.6761385,34.2406585,356.231,178.79,0.82,-0.29,-1690299,5000628,3568747,0.001,0,-0.051,0.0061,0.007,0.0023,-0.001383,-0.003225,0.003109,0.962207530773918,-1.70238266057282,0.0631275521023766
108.6761385,34.2406585,356.231,178.79,0.82,-0.29,-1690299,5000628,3568747,0.001,0,-0.052,0.0061,0.007,0.0023,-0.001383,-0.003225,0.003109,0.962247327239488,-1.7027920944546,0.0629142577696526
108.6761385,34.2406585,356.231,178.79,0.82,-0.29,-1690299,5000628,3568747,0.001,0,-0.052,0.0061,0.0069,-0.0076,-2e-05,-0.003498,0.002717,0.962122516737675,-1.70237246682897,0.062881483262325
108.6761385,34.2406585,356.208,178.79,0.82,-0.29,-1690299,5000628,3568747,0,0,-0.052,0.0061,0.0069,-0.0076,-2e-05,-0.003498,0.002717,0.962074075471698,-1.70263931892879,0.0627126299452221
108.6761385,34.2406585,356.208,178.79,0.82,-0.29,-1690299,5000628,3568747,0,0,-0.052,-0.0048,0.0069,-0.0076,-0.000711,-0.002298,0.002243,0.96187945304878,-1.70271685426829,0.0629014140243902
108.6761385,34.2406585,356.184,178.79,0.82,-0.29,-1690299,5000628,3568747,0,0,-0.052,-0.0048,0.0069,-0.0076,-0.000711,-0.002298,0.002243,0.962403922046285,-1.70245346163216,0.0627703544457978
108.6761385,34.2406585,356.184,178.79,0.82,-0.29,-1690299,5000628,3568747,0,0,-0.052,-0.0045,-0.0039,-0.0074,0.000699,-0.002298,0.002243,0.962029099939062,-1.70269232723949,0.0627854911639244
108.6761385,34.2406585,356.162,178.79,0.82,-0.29,-1690299,5000628,3568747,0,0,-0.052,-0.0045,-0.0039,-0.0074,0.000699,-0.005675,0.002855,0.962498711327649,-1.70263429598051,0.0627686845310596
108.6761385,34.2406585,356.162,178.79,0.82,-0.29,-1690299,5000628,3568747,0,0,-0.052,-0.0045,-0.0039,-0.0074,0.000699,-0.005675,0.002855,0.962194535279805,-1.70253563807786,0.062894708029197
108.6761385,34.2406585,356.162,178.79,0.82,-0.29,-1690299,5000628,3568747,0,0,-0.053,0.0059,-0.004,-0.0074,0.000104,-0.001431,0.002202,0.962322339829476,-1.7026269135201,0.0625403197320341
108.6761384,34.2406585,356.138,178.79,0.82,-0.29,-1690299,5000628,3568747,0,0,-0.053,0.0059,-0.004,-0.0074,0.000104,-0.001431,0.002202,0.962408208891596,-1.70264261510353,0.0628034062119366
108.6761384,34.2406585,356.138,178.79,0.82,-0.29,-1690299,5000628,3568747,0,0,-0.054,-0.0046,-0.004,-0.0074,0.000104,-0.001431,0.002202,0.962125435709933,-1.70249120962828,0.063206199878123
108.6761384,34.2406585,356.138,178.79,0.82,-0.29,-1690299,5000628,3568747,0,0,-0.054,-0.0046,-0.004,-0.0074,-0.000119,-0.004756,0.001925,0.962200838316046,-1.70249094813911,0.0628435729103111
108.6761384,34.2406585,356.114,178.79,0.82,-0.29,-1690299,5000628,3568747,0,0,-0.054,-0.0046,-0.004,-0.0074,-0.000119,-0.004756,0.001925,0.962290830900243,-1.70253591180049,0.0628083667883211
108.6761384,34.2406585,356.114,178.79,0.82,-0.29,-1690299,5000628,3568747,0,0,-0.054,-0.0045,0.0073,0.0022,-0.000326,-0.00323,0.002254,0.962001633373934,-1.70238455359318,0.0629330548112058
108.6761384,34.2406585,356.092,178.79,0.82,-0.29,-1690299,5000628,3568747,0,0,-0.054,-0.0045,0.0073,0.0022,-0.000326,-0.00323,0.002254,0.96241359135201,-1.70249547929354,0.0632402155907429
108.6761384,34.2406585,356.092,178.79,0.82,-0.29,-1690299,5000628,3568747,0.001,0,-0.055,0.0061,0.0069,-0.0076,-3.6e-05,-0.00323,0.002254,0.961899791108404,-1.70243923020706,0.0628454506699147
108.6761384,34.2406585,356.067,178.79,0.82,-0.29,-1690299,5000628,3568747,0.001,0,-0.055,0.0061,0.0069,-0.0076,-3.6e-05,-0.003549,0.002563,0.962164731261426,-1.7028560786106,0.0627991102985984
108.6761384,34.2406585,356.067,178.79,0.82,-0.29,-1690299,5000628,3568747,0.001,0,-0.055,0.0058,0.0073,-0.0076,-3.6e-05,-0.003549,0.002563,0.961834255941499,-1.70242713040829,0.0627493217550274
108.6761384,34.2406584,356.067,178.79,0.82,-0.29,-1690299,5000628,3568747,0.001,0,-0.055,0.0058,0.0073,0.0022,-0.000378,-0.003256,0.002355,0.962151937842779,-1.70248973857404,0.0630113711151736
108.6761384,34.2406584,356.045,178.79,0.82,-0.29,-1690299,5000628,3568747,0.001,0,-0.055,0.0058,0.0073,0.0022,-0.000378,-0.003256,0.002355,0.96234971880706,-1.70281311503348,0.0628543864881314
108.6761384,34.2406584,356.045,178.79,0.82,-0.29,-1690299,5000628,3568747,0.001,0,-0.055,0.006,-0.0038,0.0023,-0.000209,-0.004589,0.002501,0.961834492082826,-1.70233758891596,0.0629183788063337
108.6761384,34.2406584,356.02,178.79,0.82,-0.29,-1690299,5000628,3568747,0.001,0,-0.055,0.006,-0.0038,0.0023,-0.000209,-0.004589,0.002501,0.962164943396226,-1.70274816615946,0.0630896762020693
108.6761384,34.2406584,356.02,178.79,0.82,-0.29,-1690299,5000628,3568747,0.001,0,-0.056,0.0059,-0.004,-0.0074,0.000125,-0.002928,0.002423,0.961532100732601,-1.70271902258852,0.0631767197802197
108.6761384,34.2406584,355.997,178.79,0.82,-0.29,-1690299,5000628,3568747,0.001,0,-0.056,0.0059,-0.004,-0.0074,0.000125,-0.002928,0.002423,0.962136622032867,-1.70258104017042,0.062832300669507
108.6761384,34.2406584,355.997,178.79,0.82,-0.29,-1690298,5000628,3568747,0,0,-0.056,-0.0048,-0.0037,-0.0074,0.000125,-0.002928,0.002423,0.962395391463415,-1.7026206652439,0.0627841762195122
108.6761384,34.2406584,355.997,178.79,0.82,-0.29,-1690298,5000628,3568747,0,0,-0.056,-0.0048,-0.0037,-0.0073,0.000704,-0.00269,0.002455,0.96244117794028,-1.70266637050579,0.0630746435100548
108.6761384,34.2406584,355.974,178.79,0.82,-0.29,-1690298,5000628,3568747,0.001,0,-0.057,-0.0048,-0.0037,-0.0073,0.000704,-0.00269,0.002455,0.962447192682927,-1.70290386158537,0.0629185926829268
108.6761384,34.2406584,355.974,178.79,0.82,-0.29,-1690298,5000628,3568747,0.001,0,-0.057,0.0059,-0.0036,0.0023,0.00134,-0.003864,0.002149,0.96210650944546,-1.70257422973796,0.0631857410115783
108.6761384,34.2406584,355.949,178.79,0.82,-0.29,-1690298,5000628,3568747,0.001,0,-0.057,0.0059,-0.0036,0.0023,0.00134,-0.003864,0.002149,0.961771968312005,-1.7026798110908,0.0629588756855576
108.6761384,34.2406584,355.949,178.79,0.82,-0.29,-1690298,5000628,3568747,0.001,0,-0.057,0.006,-0.0038,-0.0073,0.001393,-0.004115,0.002149,0.962416256534955,-1.70247118297872,0.062683767781155
108.6761384,34.2406584,355.949,178.79,0.82,-0.29,-1690298,5000628,3568747,0.001,0,-0.057,0.006,-0.0038,-0.0073,0.001393,-0.004115,0.001565,0.962332957369062,-1.70265137819732,0.0629137192448233
108.6761384,34.2406584,355.923,178.79,0.82,-0.29,-1690298,5000628,3568747,0.001,0,-0.057,0.006,-0.0038,-0.0073,0.001393,-0.004115,0.001565,0.96235191965916,-1.70264354534388,0.0631188174071819
108.6761384,34.2406584,355.923,178.79,0.82,-0.29,-1690298,5000628,3568747,0.001,0,-0.057,-0.0048,-0.0038,0.0023,0.00055,-0.004245,0.00265,0.962601351219512,-1.70313784146341,0.0628134365853658
108.6761384,34.2406584,355.897,178.79,0.82,-0.29,-1690298,5000628,3568747,0.001,0,-0.057,-0.0048,-0.0038,0.0023,0.00055,-0.004245,0.00265,0.961999036585366,-1.70278271036585,0.0629501902439024
108.6761384,34.2406584,355.897,178.79,0.82,-0.29,-1690298,5000628,3568747,0.001,0,-0.058,-0.0048,-0.0037,0.0023,0.00055,-0.004245,0.00265,0.961937108338405,-1.70256381497261,0.0630507723676202
108.6761384,34.2406584,355.897,178.79,0.82,-0.29,-1690298,5000628,3568747,0.001,0,-0.058,-0.0048,-0.0037,0.0118,-0.000126,-0.003356,0.002985,0.962538806589384,-1.70281493593655,0.0629419334960341
108.6761384,34.2406584,355.87,178.79,0.82,-0.29,-1690298,5000628,3568747,0.001,0,-0.058,-0.0048,-0.0037,0.0118,-0.000126,-0.003356,0.002985,0.962677409866017,-1.70283585200974,0.0632004598051157
108.6761384,34.2406584,355.87,178.79,0.82,-0.29,-1690298,5000628,3568747,0.001,0,-0.058,-0.0048,-0.0038,0.0021,0.002608,-0.004126,0.001623,0.962150990853658,-1.70278472865854,0.0629562713414634
108.6761384,34.2406584,355.844,178.79,0.82,-0.29,-1690298,5000628,3568747,0.001,0,-0.058,-0.0048,-0.0038,0.0021,0.002608,-0.004126,0.001623,0.962574889768575,-1.7027415274056,0.0627895980511571
108.6761384,34.2406584,355.844,178.79,0.82,-0.29,-1690298,5000628,3568747,0,0,-0.059,-0.0047,-0.0036,0.0023,0.002608,-0.004126,0.001623,0.96265227771011,-1.70286515773447,0.0628940986601705
108.6761384,34.2406584,355.844,178.79,0.82,-0.29,-1690298,5000628,3568747,0,0,-0.059,-0.0047,-0.0036,0.0023,0.000715,-0.001958,0.002954,0.962682493000609,-1.70257547900183,0.062817398660986
108.6761384,34.2406584,355.817,178.79,0.82,-0.29,-1690298,5000628,3568747,0,0,-0.059,-0.0047,-0.0036,0.0023,0.000715,-0.001958,0.002954,0.962375633759902,-1.70258629006703,0.0630258561852529
108.6761384,34.2406584,355.817,178.79,0.82,-0.29,-1690298,5000628,3568747,0,0,-0.059,-0.0046,-0.0035,-0.0075,6.8e-05,-0.002275,0.001846,0.962796124771759,-1.70303048874011,0.0626703895313451
108.6761384,34.2406584,355.79,178.79,0.82,-0.29,-1690298,5000628,3568747,0,0,-0.059,-0.0046,-0.0035,-0.0075,6.8e-05,-0.002275,0.001846,0.962123800609756,-1.70261157621951,0.0629386615853658
108.6761384,34.2406584,355.79,178.79,0.82,-0.29,-1690298,5000628,3568747,0,0,-0.06,-0.0047,-0.0036,0.0023,0.001557,-0.002275,0.001846,0.962207054136253,-1.70292114111922,0.0629061520681265
108.6761383,34.2406584,355.79,178.79,0.82,-0.29,-1690298,5000628,3568747,0,0,-0.06,-0.0047,-0.0036,0.0023,0.001557,-0.003693,0.0022,0.96210381535649,-1.70239059110299,0.0630072985984156
108.6761383,34.2406584,355.763,178.79,0.82,-0.29,-1690298,5000628,3568747,0.001,0,-0.06,-0.0047,-0.0036,0.0023,0.001557,-0.003693,0.0022,0.962136048750762,-1.70287329859842,0.0630197227300426
108.6761383,34.2406584,355.763,178.79,0.82,-0.29,-1690298,5000628,3568747,0.001,0,-0.06,-0.0048,0.0071,0.0021,-0.000319,-0.004388,0.002685,0.962381378658537,-1.7026806554878,0.0629564414634146
108.6761383,34.2406584,355.736,178.79,0.82,-0.29,-1690298,5000628,3568747,0.001,0,-0.06,-0.0048,0.0071,0.0021,-0.000319,-0.004388,0.002685,0.962082710542352,-1.70270332541133,0.0631315039609994
108.6761383,34.2406584,355.736,178.79,0.82,-0.29,-1690298,5000628,3568747,0.001,0,-0.06,-0.0047,0.0071,0.0021,-0.000224,-0.003446,0.002273,0.96201028702011,-1.70301340097502,0.0630993601462523
108.6761383,34.2406584,355.711,178.79,0.82,-0.29,-1690298,5000628,3568747,0.001,0,-0.06,-0.0047,0.0071,0.0021,-0.000224,-0.003446,0.002273,0.962335998782715,-1.70283932440657,0.0630750024345709
108.6761383,34.2406584,355.711,178.79,0.82,-0.29,-1690298,5000628,3568747,0.001,0,-0.061,-0.0047,-0.0036,-0.0076,-0.000224,-0.003446,0.002273,0.962217064063453,-1.70292504514948,0.0632086247712019
108.6761383,34.2406584,355.711,178.79,0.82,-0.29,-1690298,5000628,3568747,0.001,0,-0.061,-0.0047,-0.0036,-0.0076,-0.000915,-0.003043,0.002734,0.962434045731707,-1.70312176829268,0.0630557085365853
108.6761383,34.2406584,355.684,178.79,0.82,-0.29,-1690298,5000628,3568747,0.001,0,-0.061,-0.0047,-0.0036,-0.0076,-0.000915,-0.003043,0.002734,0.962679428223844,-1.70274207907543,0.0629898132603406
108.6761383,34.2406584,355.684,178.79,0.82,-0.29,-1690298,5000628,3568747,0.001,0,-0.061,-0.0047,-0.0036,0.0022,0.000309,-0.003208,0.00177,0.962831068209501,-1.70285014920828,0.0629140700365408
108.6761383,34.2406584,355.656,178.79,0.82,-0.29,-1690298,5000628,3568746,0.001,0,-0.061,-0.0047,-0.0036,0.0022,0.000309,-0.003208,0.00177,0.962103820341048,-1.70266217661389,0.0628835152253349
108.6761383,34.2406584,355.656,178.79,0.82,-0.29,-1690298,5000628,3568746,0,0,-0.061,-0.0047,0.007,-0.0171,-0.000209,-0.003487,0.002503,0.962514452163315,-1.70288655575868,0.0630706453382084
108.6761383,34.2406584,355.631,178.79,0.82,-0.29,-1690298,5000628,3568746,0,0,-0.061,-0.0047,0.007,-0.0171,-0.000209,-0.003487,0.002503,0.962140411585366,-1.703288525,0.0629223835365853
108.6761383,34.2406584,355.631,178.79,0.82,-0.29,-1690298,5000628,3568746,0.001,0,-0.062,-0.0047,0.0071,0.0021,0.001039,-0.003487,0.002503,0.962367664233577,-1.70289158394161,0.0627193844282238
108.6761383,34.2406584,355.603,178.79,0.82,-0.29,-1690298,5000628,3568746,0.001,0,-0.062,-0.0047,0.0071,0.0021,0.001039,-0.003225,0.002551,0.962586888414634,-1.70311656585366,0.0628136560975609
108.6761383,34.2406584,355.603,178.79,0.82,-0.29,-1690298,5000628,3568746,0.001,0,-0.063,-0.0047,0.0071,0.0021,0.001039,-0.003225,0.002551,0.96222274558734,-1.70278944491783,0.0627740255629945
108.6761383,34.2406584,355.603,178.79,0.82,-0.29,-1690298,5000628,3568746,0.001,0,-0.063,-0.0048,0.0069,-0.0076,0.000235,-0.002445,0.002511,0.961813926219512,-1.70305893719512,0.0625571695121951
108.6761383,34.2406584,355.574,178.79,0.82,-0.29,-1690298,5000628,3568746,0.001,0,-0.063,-0.0048,0.0069,-0.0076,0.000235,-0.002445,0.002511,0.962123361585366,-1.7029885097561,0.0629553810975609
108.6761383,34.2406584,355.574,178.79,0.82,-0.29,-1690298,5000628,3568746,0.001,0,-0.063,-0.0045,-0.0038,0.0023,-0.001716,-0.0037,0.002511,0.962509035279805,-1.70262411253041,0.0629385942822384
108.6761383,34.2406584,355.546,178.79,0.82,-0.29,-1690298,5000628,3568746,0.001,0,-0.063,-0.0045,-0.0038,0.0023,-0.001716,-0.0037,0.001661,0.96220034774665,-1.70277975517661,0.0628429835566382
108.6761383,34.2406584,355.546,178.79,0.82,-0.29,-1690298,5000628,3568746,0.001,0,-0.064,-0.0045,-0.0038,0.0023,-0.001716,-0.0037,0.001661,0.962576080900243,-1.70317417274939,0.0627262128953771
108.6761383,34.2406584,355.546,178.79,0.82,-0.29,-1690298,5000628,3568746,0.001,0,-0.064,-0.0045,0.0073,0.0023,0.000294,-0.004094,0.001851,0.962306295121951,-1.70328481890244,0.0629178414634146
108.6761383,34.2406583,355.517,178.79,0.82,-0.29,-1690298,5000628,3568746,0.001,0,-0.064,-0.0045,0.0073,0.0023,0.000294,-0.004094,0.001851,0.96255711402439,-1.70321795487805,0.0629057195121951
108.6761383,34.2406583,355.517,178.79,0.82,-0.29,-1690298,5000628,3568746,0.001,0,-0.064,-0.0046,0.0071,-0.0073,-5.5e-05,-0.004094,0.001851,0.962227030432136,-1.7029274473524,0.0629259123554473
108.6761383,34.2406583,355.491,178.79,0.82,-0.29,-1690298,5000628,3568746,0.001,0,-0.064,-0.0046,0.0071,-0.0073,-5.5e-05,-0.005097,0.00275,0.962363818015825,-1.70279769993914,0.0627684108338405
108.6761383,34.2406583,355.491,178.79,0.82,-0.29,-1690298,5000628,3568746,0.001,0,-0.064,0.006,0.0071,-0.0073,-5.5e-05,-0.005097,0.00275,0.962205365630713,-1.70306594759293,0.0627706130408287
108.6761383,34.2406583,355.491,178.79,0.82,-0.29,-1690298,5000628,3568746,0.001,0,-0.064,0.006,0.0071,-0.0075,0.001092,-0.002419,0.00216,0.962126862888483,-1.7028047440585,0.0630242480195003
108.6761383,34.2406583,355.462,178.79,0.82,-0.29,-1690298,5000628,3568746,0.001,0,-0.064,0.006,0.0071,-0.0075,0.001092,-0.002419,0.00216,0.962458068734793,-1.70273739720195,0.0625515371046228
108.6761383,34.2406583,355.462,178.79,0.82,-0.29,-1690298,5000628,3568746,0.001,0,-0.065,-0.0046,0.0071,0.0119,-0.001003,-0.003138,0.002612,0.962500749695493,-1.70291117113276,0.0630827198538367
108.6761383,34.2406583,355.432,178.79,0.82,-0.29,-1690298,5000628,3568746,0.001,0,-0.065,-0.0046,0.0071,0.0119,-0.001003,-0.003138,0.002612,0.962272670322974,-1.70301792382693,0.0629989902498476
108.6761383,34.2406583,355.432,178.79,0.82,-0.29,-1690298,5000628,3568746,0.001,0,-0.066,-0.0044,0.0074,0.0119,-0.001003,-0.003138,0.002612,0.962331913414634,-1.7031378902439,0.0631701024390243
108.6761383,34.2406583,355.432,178.79,0.82,-0.29,-1690298,5000628,3568746,0.001,0,-0.066,-0.0044,0.0074,-0.0074,-0.000355,-0.003679,0.002647,0.962414741463415,-1.70283832439024,0.0629575945121951
108.6761382,34.2406583,355.403,178.79,0.82,-0.29,-1690298,5000628,3568746,0.001,0,-0.066,-0.0044,0.0074,-0.0074,-0.000355,-0.003679,0.002647,0.962924623020706,-1.70310195615104,0.0629114799025578
108.6761382,34.2406583,355.403,178.79,0.82,-0.29,-1690298,5000628,3568746,0.001,0,-0.066,-0.0046,0.0071,0.0023,-0.000642,-0.003058,0.002523,0.962708361805979,-1.70355400488103,0.0628583923123856
108.6761382,34.2406583,355.373,178.79,0.82,-0.29,-1690298,5000628,3568746,0.001,0,-0.066,-0.0046,0.0071,0.0023,-0.000642,-0.003058,0.002523,0.962774143292683,-1.70324732804878,0.0629277560975609
108.6761382,34.2406583,355.373,178.79,0.82,-0.29,-1690298,5000628,3568746,0.001,0,-0.066,-0.0044,0.0074,0.0118,0.000431,-0.003058,0.002523,0.962664876219512,-1.7032799652439,0.0631388792682926
108.6761382,34.2406583,355.373,178.79,0.82,-0.29,-1690298,5000628,3568746,0.001,0,-0.066,-0.0044,0.0074,0.0118,0.000431,-0.004356,0.002454,0.962218855487805,-1.70314417195122,0.063040712804878
108.6761382,34.2406583,355.343,178.79,0.82,-0.29,-1690298,5000628,3568746,0.001,0,-0.066,-0.0044,0.0074,0.0118,0.000431,-0.004356,0.002454,0.962182223980523,-1.7029444102252,0.0630938502738892
108.6761382,34.2406583,355.343,178.79,0.82,-0.29,-1690298,5000628,3568746,0.001,0,-0.067,-0.0047,-0.0036,0.0023,0.000854,-0.003527,0.002036,0.962372082876295,-1.70309948872639,0.0630402041438147
108.6761382,34.2406583,355.316,178.79,0.82,-0.29,-1690298,5000628,3568746,0.001,0,-0.067,-0.0047,-0.0036,0.0023,0.000854,-0.003527,0.002036,0.96183718986569,-1.70329763247863,0.062823967032967
108.6761382,34.2406583,355.316,178.79,0.82,-0.29,-1690298,5000628,3568746,0.001,0,-0.067,0.0059,-0.004,-0.0074,-0.001052,-0.003527,0.002036,0.962289691042048,-1.70296886106033,0.0632211151736746
108.6761382,34.2406583,355.316,178.79,0.82,-0.29,-1690298,5000628,3568746,0.001,0,-0.067,0.0059,-0.004,-0.0074,-0.001052,-0.00312,0.002197,0.962685537758831,-1.70288909805116,0.062810694275274
108.6761382,34.2406583,355.282,178.79,0.82,-0.29,-1690298,5000628,3568746,0.001,0,-0.067,0.0059,-0.004,-0.0074,-0.001052,-0.00312,0.002197,0.962464799634592,-1.70294463946407,0.0628345925700365
108.6761382,34.2406583,355.282,178.79,0.82,-0.29,-1690298,5000628,3568746,0.001,0,-0.067,-0.0046,-0.0038,0.0023,-0.000621,-0.003806,0.002493,0.962137748780488,-1.7030937445122,0.0627866707317073
108.6761382,34.2406583,355.252,178.79,0.82,-0.29,-1690298,5000628,3568746,0.001,0,-0.067,-0.0046,-0.0038,0.0023,-0.000621,-0.003806,0.002493,0.962083557657108,-1.70302709701037,0.0632023965832824
108.6761382,34.2406583,355.252,178.79,0.82,-0.29,-1690298,5000628,3568746,0.001,0,-0.068,0.0059,-0.004,-0.0074,-0.000621,-0.003806,0.002493,0.962548800365186,-1.70328177175898,0.0631180279975654
108.6761382,34.2406583,355.221,178.79,0.82,-0.29,-1690298,5000628,3568746,0.001,0,-0.068,0.0059,-0.004,-0.0074,0.001177,-0.003225,0.001874,0.962894896404631,-1.70299396221816,0.0630677519804997
108.6761382,34.2406583,355.221,178.79,0.82,-0.29,-1690298,5000628,3568746,0.001,0,-0.069,-0.0049,-0.004,-0.0074,0.001177,-0.003225,0.001874,0.96255633150518,-1.70281763802559,0.0627685143205362
108.6761382,34.2406583,355.221,178.79,0.82,-0.29,-1690298,5000628,3568746,0.001,0,-0.069,-0.0049,-0.0039,0.0119,-4.4e-05,-0.004565,0.003268,0.962429259281802,-1.70278763237979,0.0630622641509433
108.6761382,34.2406583,355.194,178.79,0.82,-0.29,-1690298,5000628,3568746,0.001,0,-0.069,-0.0049,-0.0039,0.0119,-4.4e-05,-0.004565,0.003268,0.962220043902439,-1.70321062926829,0.0628928158536585
108.6761382,34.2406583,355.194,178.79,0.82,-0.29,-1690298,5000628,3568746,0.001,0,-0.069,-0.0048,-0.0038,0.0023,0.000955,-0.004565,0.003268,0.962287392813642,-1.70325651766139,0.0628282582216808
108.6761382,34.2406583,355.162,178.79,0.82,-0.29,-1690298,5000628,3568746,0.001,0,-0.069,-0.0048,-0.0038,0.0023,0.000955,-0.003947,0.002024,0.961713344302255,-1.70284355088361,0.0625908342474101
108.6761382,34.2406583,355.162,178.79,0.82,-0.29,-1690298,5000628,3568746,0.001,0,-0.069,-0.0046,-0.0038,0.0023,0.000955,-0.003947,0.002024,0.961917858622791,-1.70288006337599,0.0630138531383302
108.6761382,34.2406583,355.162,178.79,0.82,-0.29,-1690298,5000628,3568746,0.001,0,-0.069,-0.0046,-0.0038,0.0023,-0.000833,-0.005072,0.003107,0.962192137720902,-1.70280572333943,0.0630225575868373
108.6761382,34.2406583,355.135,178.79,0.82,-0.29,-1690298,5000628,3568746,0.001,0,-0.069,-0.0046,-0.0038,0.0023,-0.000833,-0.005072,0.003107,0.96191315234613,-1.70294752468007,0.0630150810481413
108.6761382,34.2406583,355.135,178.79,0.82,-0.29,-1690298,5000628,3568746,0.001,0,-0.069,-0.0047,-0.0041,-0.0171,-6.1e-05,-0.002658,0.002386,0.961853303233679,-1.70315468578401,0.0627415747406955
108.6761382,34.2406583,355.1,178.79,0.82,-0.29,-1690298,5000628,3568746,0.001,0,-0.069,-0.0047,-0.0041,-0.0171,-6.1e-05,-0.002658,0.002386,0.961638329469189,-1.70308656314826,0.0629178816351433
108.6761382,34.2406583,355.1,178.79,0.82,-0.29,-1690298,5000628,3568746,0.001,0,-0.07,-0.0047,-0.0041,-0.0171,-6.1e-05,-0.002658,0.002386,0.96247306337599,-1.70320893418647,0.0631120780012187
108.6761382,34.2406583,355.1,178.79,0.82,-0.29,-1690298,5000628,3568746,0.001,0,-0.07,-0.0047,-0.0038,0.0023,-0.000547,-0.002627,0.001758,0.961955042708969,-1.70302746369738,0.0627872654057352
108.6761382,34.2406583,355.071,178.79,0.82,-0.29,-1690298,5000628,3568746,0.001,0,-0.07,-0.0047,-0.0038,0.0023,-0.000547,-0.002627,0.001758,0.962303643118149,-1.70296109926918,0.0632513806333739
108.6761382,34.2406583,355.071,178.79,0.82,-0.29,-1690298,5000628,3568746,0.001,0,-0.071,-0.0046,-0.0035,-0.0171,0.00098,-0.003024,0.002917,0.962562385600976,-1.70336790176937,0.0628290329469188
108.6761381,34.2406583,355.039,178.79,0.82,-0.29,-1690298,5000628,3568746,0.001,0,-0.071,-0.0046,-0.0035,-0.0171,0.00098,-0.003024,0.002917,0.962187446135119,-1.70316703286671,0.0629089220937309
108.6761381,34.2406583,355.039,178.79,0.82,-0.29,-1690298,5000628,3568746,0.001,0,-0.071,-0.0047,-0.0036,0.0023,0.00051,-0.005646,0.002917,0.962966265815085,-1.70319328527981,0.0627119768856447
108.6761381,34.2406582,355.011,178.79,0.82,-0.29,-1690298,5000628,3568746,0.001,0,-0.071,-0.0047,-0.0036,0.0023,0.00051,-0.005646,0.003436,0.962520603532278,-1.70304811571255,0.0632074372716199
108.6761381,34.2406582,355.011,178.79,0.82,-0.29,-1690298,5000628,3568746,0.001,0,-0.071,0.0059,-0.0035,0.0023,0.00051,-0.005646,0.003436,0.96263922242535,-1.70325083790372,0.0628804948202315
108.6761381,34.2406582,355.011,178.79,0.82,-0.29,-1690298,5000628,3568746,0.001,0,-0.071,0.0059,-0.0035,0.012,0.001833,-0.002472,0.001386,0.962878070121951,-1.70344473292683,0.0631276981707317
108.6761381,34.2406582,354.975,178.79,0.82,-0.29,-1690298,5000628,3568746,0.001,0,-0.071,0.0059,-0.0035,0.012,0.001833,-0.002472,0.001386,0.962574513414634,-1.7030488304878,0.0629649859756097
108.6761381,34.2406582,354.975,178.79,0.82,-0.29,-1690298,5000628,3568746,0.001,0,-0.071,0.0059,-0.004,-0.0074,-0.001711,-0.002472,0.001386,0.962376151552039,-1.70310921606817,0.0631471259890444
108.6761381,34.2406582,354.946,178.79,0.82,-0.29,-1690298,5000628,3568746,0.001,0,-0.071,0.0059,-0.004,-0.0074,-0.001711,-0.001524,0.002401,0.9627416496039,-1.70304788604509,0.0628065124923827
108.6761381,34.2406582,354.946,178.79,0.82,-0.29,-1690298,5000627,3568746,0.001,0,-0.072,-0.0047,-0.0036,-0.0074,-0.001711,-0.001524,0.002401,0.962075547619048,-1.70340798962149,0.0625754743589743
108.6761381,34.2406582,354.946,178.79,0.82,-0.29,-1690298,5000627,3568746,0.001,0,-0.072,-0.0047,-0.0036,0.0023,0.000558,-0.001979,0.002721,0.962225033536585,-1.70334425,0.0629604871951219
108.6761381,34.2406582,354.917,178.79,0.82,-0.29,-1690298,5000627,3568746,0.001,0,-0.072,-0.0047,-0.0036,0.0023,0.000558,-0.001979,0.002721,0.962388546008531,-1.70310715965874,0.0632711767215112
108.6761381,34.2406582,354.917,178.79,0.82,-0.29,-1690298,5000627,3568746,0.001,0,-0.072,0.006,-0.0038,-0.0073,0.000828,-0.002699,0.002184,0.963298907542579,-1.70340881690998,0.0625456283454987
108.6761381,34.2406582,354.884,178.79,0.82,-0.29,-1690298,5000627,3568746,0.001,0,-0.072,0.006,-0.0038,-0.0073,0.000828,-0.002699,0.002184,0.962640067559343,-1.70310493913573,0.063117084601339
108.6761381,34.2406582,354.884,178.79,0.82,-0.29,-1690298,5000627,3568746,0.001,0,-0.073,0.006,-0.0038,-0.0073,0.000828,-0.002699,0.002184,0.962654337393423,-1.70347217844093,0.0631028794153471
108.6761381,34.2406582,354.884,178.79,0.82,-0.29,-1690298,5000627,3568746,0.001,0,-0.073,-0.0048,-0.0038,0.0021,-0.000693,-0.003028,0.001624,0.962585534430225,-1.70341109018891,0.063237957952468
108.6761381,34.2406582,354.851,178.79,0.82,-0.29,-1690298,5000627,3568746,0.001,0,-0.073,-0.0048,-0.0038,0.0021,-0.000693,-0.003028,0.001624,0.962698655697745,-1.70325637233394,0.0627581206581353
108.6761381,34.2406582,354.851,178.79,0.82,-0.29,-1690298,5000627,3568746,0.001,0,-0.073,-0.0048,-0.0038,0.0022,0.001032,-0.003932,0.001553,0.96251854473524,-1.70333337735849,0.0627170535605599
108.6761381,34.2406582,354.814,178.79,0.82,-0.29,-1690298,5000627,3568746,0.001,0,-0.073,-0.0048,-0.0038,0.0022,0.001032,-0.003932,0.001553,0.962465087751371,-1.70313752224253,0.0629975606337599
108.6761381,34.2406582,354.814,178.79,0.82,-0.29,-1690298,5000627,3568746,0.001,0,-0.074,0.0059,-0.004,0.0023,-0.00082,-0.003932,0.001553,0.962521410115783,-1.70313548994516,0.0630258836075563
108.6761381,34.2406582,354.814,178.79,0.82,-0.29,-1690298,5000627,3568746,0.001,0,-0.074,0.0059,-0.004,0.0023,-0.00082,-0.002778,0.002849,0.963205062690201,-1.70334209312234,0.0626811125989044
108.6761381,34.2406582,354.784,178.79,0.82,-0.29,-1690298,5000627,3568746,0.001,0,-0.075,-0.0048,-0.004,0.0023,-0.00082,-0.002778,0.002849,0.962552877588307,-1.70316139646772,0.0629539116930572
108.6761381,34.2406582,354.784,178.79,0.82,-0.29,-1690298,5000627,3568746,0.001,0,-0.075,-0.0048,-0.0038,0.0021,-3.7e-05,-0.002554,0.002351,0.962394398903776,-1.70308043057247,0.0630952040194884
108.6761381,34.2406582,354.751,178.79,0.82,-0.29,-1690298,5000627,3568746,0.001,0,-0.075,-0.0048,-0.0038,0.0021,-3.7e-05,-0.002554,0.002351,0.962137536019536,-1.70325771550672,0.0628174706959707
108.6761381,34.2406582,354.751,178.79,0.82,-0.29,-1690298,5000627,3568746,0.001,0,-0.075,-0.0047,0.0069,0.0021,-3.7e-05,-0.002554,0.002351,0.962424695731707,-1.70319609512195,0.0626717036585365
108.6761381,34.2406582,354.751,178.79,0.82,-0.29,-1690298,5000627,3568746,0.001,0,-0.075,-0.0047,0.0069,-0.0076,0.001229,-0.003625,0.002233,0.962499390243902,-1.70332636036585,0.062804937804878
108.6761381,34.2406582,354.717,178.79,0.82,-0.29,-1690298,5000627,3568746,0.001,0,-0.075,-0.0047,0.0069,-0.0076,0.001229,-0.003625,0.002233,0.962138174893358,-1.70321879768434,0.0625679274832419
108.6761381,34.2406582,354.717,178.79,0.82,-0.29,-1690298,5000627,3568746,0.001,0,-0.075,-0.0048,0.0072,0.0118,0.000238,-0.003007,0.002558,0.962171674177832,-1.70307352192448,0.0628929506699147
108.676138,34.2406582,354.683,178.79,0.82,-0.29,-1690298,5000627,3568746,0.001,0,-0.075,-0.0048,0.0072,0.0118,0.000238,-0.003007,0.002558,0.962720547836685,-1.70326940645948,0.063298551492992
108.676138,34.2406582,354.683,178.79,0.82,-0.29,-1690298,5000627,3568746,0.001,0,-0.075,-0.0049,-0.0039,0.0118,0.000238,-0.003007,0.002558,0.962043326219512,-1.70298341280488,0.0630013018292682
108.676138,34.2406582,354.683,178.79,0.82,-0.29,-1690298,5000627,3568746,0.001,0,-0.075,-0.0049,-0.0039,0.0021,-0.001094,-0.003495,0.002342,0.962861940961655,-1.70338478697505,0.062691135727328
108.676138,34.2406582,354.649,178.79,0.82,-0.29,-1690298,5000627,3568746,0.001,0,-0.075,-0.0049,-0.0039,0.0021,-0.001094,-0.003495,0.002342,0.962407731707317,-1.70327796585366,0.0629907585365853
108.676138,34.2406582,354.649,178.79,0.82,-0.29,-1690298,5000627,3568746,0.001,0,-0.076,0.006,0.0071,-0.0075,-0.000216,-0.002625,0.002753,0.962325551492992,-1.70316008714199,0.0627389183424741
108.676138,34.2406582,354.614,178.79,0.82,-0.29,-1690298,5000627,3568746,0.001,0,-0.076,0.006,0.0071,-0.0075,-0.000216,-0.002625,0.002753,0.962610900121803,-1.70338195249695,0.0628815261875761
108.676138,34.2406582,354.614,178.79,0.82,-0.29,-1690298,5000627,3568746,0.001,0,-0.076,0.006,0.0068,0.0023,0.000194,-0.002625,0.002753,0.962039772560976,-1.70306285,0.0631308390243902
108.676138,34.2406582,354.58,178.79,0.82,-0.29,-1690298,5000627,3568746,0.001,0,-0.076,0.006,0.0068,0.0023,0.000194,-0.003713,0.002287,0.962403988428745,-1.70314123142509,0.0627944317904993
108.676138,34.2406582,354.58,178.79,0.82,-0.29,-1690298,5000627,3568746,0.001,0,-0.076,-0.0047,-0.0036,0.0023,0.000194,-0.003713,0.002287,0.962692907926829,-1.70318731707317,0.0628736335365853
108.676138,34.2406582,354.58,178.79,0.82,-0.29,-1690298,5000627,3568746,0.001,0,-0.076,-0.0047,-0.0036,-0.0172,-0.000522,-0.003765,0.002532,0.962373386349787,-1.70303076599634,0.063146127361365
108.676138,34.2406582,354.549,178.79,0.82,-0.29,-1690298,5000627,3568746,0.001,0,-0.076,-0.0047,-0.0036,-0.0172,-0.000522,-0.003765,0.002532,0.96214395304878,-1.70335491036585,0.0629691890243902
108.676138,34.2406582,354.549,178.79,0.82,-0.29,-1690298,5000627,3568746,0.001,0,-0.077,-0.0045,0.0073,0.0023,0.000311,-0.003238,0.002548,0.962663898356665,-1.70303579671333,0.0630232288496652
108.676138,34.2406581,354.514,178.79,0.82,-0.29,-1690298,5000627,3568746,0.001,0,-0.077,-0.0045,0.0073,0.0023,0.000311,-0.003238,0.002548,0.962557708968884,-1.70325665039658,0.0631796235509457
108.676138,34.2406581,354.514,178.79,0.82,-0.29,-1690298,5000627,3568746,0.001,0,-0.078,0.0059,0.0073,0.0022,0.000311,-0.003238,0.002548,0.962723883819951,-1.70312250243309,0.0627758108272506
108.676138,34.2406581,354.482,178.79,0.82,-0.29,-1690298,5000627,3568746,0.001,0,-0.078,0.0059,0.0073,0.0022,0.000287,-0.002546,0.002204,0.96220107007922,-1.70315447958562,0.0627867239488117
108.676138,34.2406581,354.482,178.79,0.82,-0.29,-1690298,5000627,3568746,0.001,0,-0.078,-0.0048,-0.004,0.0022,0.000287,-0.002546,0.002204,0.962245590853659,-1.70325586158537,0.0629898859756097
108.676138,34.2406581,354.482,178.79,0.82,-0.29,-1690298,5000627,3568746,0.001,0,-0.078,-0.0048,-0.004,-0.0074,0.000644,-0.002583,0.001934,0.962718744214373,-1.7032646498173,0.0629076991473812
108.676138,34.2406581,354.447,178.79,0.82,-0.29,-1690298,5000627,3568746,0.001,0,-0.078,-0.0048,-0.004,-0.0074,0.000644,-0.002583,0.001934,0.962025059218559,-1.70324194322344,0.0631965634920635
108.676138,34.2406581,354.447,178.79,0.82,-0.29,-1690298,5000627,3568746,0.001,0,-0.079,0.0061,-0.0037,0.0119,-0.000485,-0.003518,0.002015,0.962463390986602,-1.703293454324,0.063159143727162
108.676138,34.2406581,354.411,178.79,0.82,-0.29,-1690298,5000627,3568746,0.001,0,-0.079,0.0061,-0.0037,0.0119,-0.000485,-0.003518,0.002015,0.961935548170732,-1.70322442743902,0.0627933695121951
108.676138,34.2406581,354.411,178.79,0.82,-0.29,-1690298,5000627,3568746,0.001,0,-0.079,-0.0047,-0.0038,0.0119,-0.000485,-0.003518,0.002015,0.962273413520097,-1.70322316747868,0.0629210389768574
108.676138,34.2406581,354.411,178.79,0.82,-0.29,-1690298,5000627,3568746,0.001,0,-0.079,-0.0047,-0.0038,-0.0073,-0.0005,-0.004178,0.002291,0.962373225197809,-1.70301761229458,0.0627830133901399
108.676138,34.2406581,354.38,178.79,0.82,-0.29,-1690298,5000627,3568746,0.001,0,-0.079,-0.0047,-0.0038,-0.0073,-0.0005,-0.004178,0.002291,0.962700843388178,-1.70325196404631,0.0629871407678245
108.676138,34.2406581,354.38,178.79,0.82,-0.29,-1690298,5000627,3568746,0.001,0,-0.08,0.0059,-0.004,0.0022,-3.2e-05,-0.002889,0.002346,0.962362564290067,-1.70322598964046,0.0627883412553321
108.676138,34.2406581,354.344,178.79,0.82,-0.29,-1690298,5000627,3568746,0.001,0,-0.08,0.0059,-0.004,0.0022,-3.2e-05,-0.002889,0.002346,0.962373123554474,-1.70301772489349,0.0629404844796104
108.676138,34.2406581,354.344,178.79,0.82,-0.29,-1690298,5000627,3568746,0.001,0,-0.08,0.0059,0.0073,0.0022,-8.4e-05,-0.002889,0.002346,0.96228531097561,-1.70323851402439,0.0625605280487804
108.676138,34.2406581,354.344,178.79,0.82,-0.29,-1690298,5000627,3568746,0.001,0,-0.08,0.0059,0.0073,0.0022,-8.4e-05,-0.003272,0.002782,0.961889901889092,-1.70298174649604,0.063030382084095
108.6761379,34.2406581,354.303,178.79,0.82,-0.29,-1690298,5000627,3568746,0.001,0,-0.08,0.0059,0.0073,0.0022,-8.4e-05,-0.003272,0.002782,0.962898101767215,-1.7033117952468,0.0629936014625228
108.6761379,34.2406581,354.303,178.79,0.82,-0.29,-1690298,5000627,3568746,0.001,0,-0.08,0.006,0.0071,-0.0075,-0.000287,-0.003823,0.002375,0.961746702504582,-1.70337591020159,0.0630538283445326
108.6761379,34.2406581,354.271,178.79,0.82,-0.29,-1690298,5000627,3568746,0.001,0,-0.08,0.006,0.0071,-0.0075,-0.000287,-0.003823,0.002375,0.962797340218712,-1.70297319744836,0.0629026445929526
108.6761379,34.2406581,354.271,178.79,0.82,-0.29,-1690298,5000627,3568746,0.001,0,-0.081,0.0061,0.0069,0.0023,-0.001664,-0.003823,0.002375,0.962306071297989,-1.70307689335771,0.0628349616087751
108.6761379,34.2406581,354.271,178.79,0.82,-0.29,-1690298,5000627,3568746,0.001,0,-0.081,0.0061,0.0069,0.0023,-0.001664,-0.002097,0.002558,0.962483232034105,-1.70311325700365,0.0627526857490864
108.6761379,34.2406581,354.235,178.79,0.82,-0.29,-1690298,5000627,3568746,0.001,0,-0.081,-0.0046,0.0071,0.0023,-0.001664,-0.002097,0.002558,0.962842554473524,-1.70320355082167,0.0627621783323189
108.6761379,34.2406581,354.235,178.79,0.82,-0.29,-1690298,5000627,3568746,0.001,0,-0.081,-0.0046,0.0071,-0.0075,0.001493,-0.002793,0.002467,0.962629587948874,-1.70311055082167,0.0631412842361533
108.6761379,34.2406581,354.198,178.79,0.82,-0.29,-1690298,5000627,3568746,0.001,0,-0.081,-0.0046,0.0071,-0.0075,0.001493,-0.002793,0.002467,0.962835602439024,-1.70375238109756,0.0631444512195121
108.6761379,34.2406581,354.198,178.79,0.82,-0.29,-1690298,5000627,3568746,0.001,0,-0.082,-0.0048,0.0073,0.0022,0.001579,-0.003394,0.002467,0.962047209756098,-1.70338784390244,0.0626310963414634
108.6761379,34.2406581,354.165,178.79,0.82,-0.29,-1690298,5000627,3568746,0.001,0,-0.082,-0.0048,0.0073,0.0022,0.001579,-0.003394,0.002234,0.962786037804878,-1.70335933597561,0.0626421914634146
108.6761379,34.2406581,354.165,178.79,0.82,-0.29,-1690298,5000627,3568746,0.001,0.001,-0.082,0.006,-0.0038,0.0023,0.001579,-0.003394,0.002234,0.962866237226278,-1.70329012591241,0.0629429324817518
108.6761379,34.2406581,354.165,178.79,0.82,-0.29,-1690298,5000627,3568746,0.001,0.001,-0.082,0.006,-0.0038,0.0023,-0.000423,-0.003819,0.003059,0.962046367907261,-1.70330303233679,0.0627924734594264
108.6761379,34.2406581,354.128,178.79,0.82,-0.29,-1690298,5000627,3568746,0.001,0,-0.082,0.006,-0.0038,0.0023,-0.000423,-0.003819,0.003059,0.962496471018914,-1.7035064838316,0.0629605759609518
108.6761379,34.2406581,354.128,178.79,0.82,-0.29,-1690298,5000627,3568746,0.001,0,-0.082,-0.0047,0.0071,0.0021,0.001866,-0.003427,0.002283,0.962691990261716,-1.70343165550822,0.0631269068776628
108.6761379,34.2406581,354.095,178.79,0.82,-0.29,-1690298,5000627,3568746,0.001,0,-0.082,-0.0047,0.0071,0.0021,0.001866,-0.003427,0.002283,0.962467082216809,-1.7031100091352,0.0629378130328867
108.6761379,34.2406581,354.095,178.79,0.82,-0.29,-1690298,5000627,3568746,0.001,0,-0.082,0.006,-0.0039,-0.017,3.3e-05,-0.003928,0.002451,0.962260481097561,-1.70347502256098,0.0628394621951219
108.6761379,34.2406581,354.061,178.79,0.82,-0.29,-1690298,5000627,3568746,0.001,0,-0.082,0.006,-0.0039,-0.017,3.3e-05,-0.003928,0.002451,0.963005287454324,-1.70350194031669,0.0628132978075517
108.6761379,34.2406581,354.061,178.79,0.82,-0.29,-1690298,5000627,3568746,0.001,0,-0.083,0.0059,-0.0038,-0.0073,-0.000672,-0.003928,0.002451,0.962315454268293,-1.70332801341463,0.0630426871951219
108.6761379,34.240658,354.024,178.79,0.82,-0.29,-1690298,5000627,3568746,0.001,0,-0.083,0.0059,-0.0038,-0.0073,-0.000672,-0.002305,0.002041,0.962913349360925,-1.70349624163116,0.0629346561168594
108.6761379,34.240658,354.024,178.79,0.82,-0.29,-1690298,5000627,3568746,0.001,0,-0.083,0.0059,-0.0038,-0.0073,-0.000672,-0.002305,0.002041,0.962401870280146,-1.70308311023143,0.0626589177831912
108.6761379,34.240658,354.024,178.79,0.82,-0.29,-1690298,5000627,3568746,0.001,0,-0.083,0.0059,-0.004,-0.0074,-0.000965,-0.002488,0.002889,0.962624588665448,-1.70323386106033,0.0631739609993906
108.6761379,34.240658,353.986,178.79,0.82,-0.29,-1690298,5000627,3568746,0.001,0,-0.083,0.0059,-0.004,-0.0074,-0.000965,-0.002488,0.002889,0.961934304029304,-1.70344191269841,0.0628581971916971
108.6761379,34.240658,353.986,178.79,0.82,-0.29,-1690298,5000627,3568746,0.001,0,-0.084,-0.0047,-0.0036,0.0023,-0.000965,-0.002488,0.002889,0.962271468292683,-1.70345624634146,0.0630852109756097
108.6761378,34.240658,353.986,178.79,0.82,-0.29,-1690298,5000627,3568746,0.001,0,-0.084,-0.0047,-0.0036,0.0023,0.001331,-0.002695,0.002345,0.962768222627737,-1.70344153710462,0.0629355109489051
108.6761378,34.240658,353.948,178.79,0.82,-0.29,-1690298,5000627,3568746,0.001,0,-0.084,-0.0047,-0.0036,0.0023,0.001331,-0.002695,0.002345,0.962420434835566,-1.70342303105968,0.0629264257003654
108.6761378,34.240658,353.948,178.79,0.82,-0.29,-1690298,5000627,3568746,0.001,0,-0.084,-0.0048,-0.0038,0.0021,0.000816,-0.003641,0.002193,0.962549956124314,-1.70326019865935,0.0627641858622791
108.6761378,34.240658,353.91,178.79,0.82,-0.29,-1690298,5000627,3568746,0.001,0,-0.084,-0.0048,-0.0038,0.0021,0.000816,-0.003641,0.002193,0.962603369896405,-1.70338281048141,0.0633169945155393
108.6761378,34.240658,353.91,178.79,0.82,-0.29,-1690298,5000627,3568745,0.001,0,-0.085,-0.0047,0.0069,-0.0076,-0.000479,-0.00283,0.002432,0.962496399878272,-1.70306815702982,0.0630641405964698
108.6761378,34.240658,353.871,178.79,0.82,-0.29,-1690298,5000627,3568745,0.001,0,-0.085,-0.0047,0.0069,-0.0076,-0.000479,-0.00283,0.002432,0.962664798293723,-1.70319658318099,0.0627966319317489
108.6761378,34.240658,353.871,178.79,0.82,-0.29,-1690298,5000627,3568745,0.001,0,-0.085,-0.0047,0.0069,-0.0076,-0.000479,-0.00283,0.002432,0.962403464677223,-1.70311579719854,0.0628395371498173
108.6761378,34.240658,353.871,178.79,0.82,-0.29,-1690298,5000627,3568745,0.001,0,-0.085,-0.0046,0.0071,-0.0074,-0.000505,-0.00282,0.002424,0.962360915853658,-1.70353998597561,0.062989856707317
108.6761378,34.240658,353.833,178.79,0.82,-0.29,-1690298,5000627,3568745,0.001,0,-0.085,-0.0046,0.0071,-0.0074,-0.000505,-0.00282,0.002424,0.962750741778319,-1.70316573568819,0.0628498148599269
108.6761378,34.240658,353.833,178.79,0.82,-0.29,-1690298,5000627,3568745,0.001,0,-0.085,0.0061,-0.0037,-0.0075,-4.4e-05,-0.00492,0.002862,0.962667591849148,-1.7033287323601,0.062978104622871
108.6761378,34.240658,353.798,178.79,0.82,-0.29,-1690298,5000627,3568745,0.001,0,-0.085,0.0061,-0.0037,-0.0075,-4.4e-05,-0.00492,0.002862,0.962720688794153,-1.70336306516443,0.0629736400730816
108.6761378,34.240658,353.798,178.79,0.82,-0.29,-1690298,5000627,3568745,0.001,0,-0.086,0.006,-0.0038,-0.0075,-4.4e-05,-0.00492,0.002862,0.962482289281364,-1.70310685870889,0.063257197320341
108.6761378,34.240658,353.798,178.79,0.82,-0.29,-1690298,5000627,3568745,0.001,0,-0.086,0.006,-0.0038,-0.0075,0.000347,-0.003307,0.002445,0.961757090909091,-1.7032735704698,0.0629914484441732
108.6761378,34.240658,353.759,178.79,0.82,-0.29,-1690298,5000627,3568745,0.001,0,-0.086,0.006,-0.0038,-0.0075,0.000347,-0.003307,0.002445,0.962356577791336,-1.70355679865772,0.0631823477730323
108.6761378,34.240658,353.759,178.79,0.82,-0.29,-1690298,5000627,3568745,0.001,0,-0.087,-0.0044,0.0074,0.0118,7.7e-05,-0.004474,0.002728,0.962220241778319,-1.70298899512789,0.0631178556638246
108.6761378,34.240658,353.724,178.79,0.82,-0.29,-1690298,5000627,3568745,0.001,0,-0.087,-0.0044,0.0074,0.0118,7.7e-05,-0.004474,0.002728,0.962716236297199,-1.70336456211937,0.0625870767356881
108.6761378,34.240658,353.724,178.79,0.82,-0.29,-1690298,5000627,3568745,0.002,0,-0.087,0.0059,-0.004,0.0022,0.001059,-0.004474,0.002728,0.962491356664638,-1.70335387705417,0.0627980407790626
108.6761378,34.240658,353.685,178.79,0.82,-0.29,-1690298,5000627,3568745,0.002,0,-0.087,0.0059,-0.004,0.0022,0.001059,-0.003574,0.00242,0.962620957952468,-1.70345840463132,0.0631181157830591
108.6761378,34.240658,353.685,178.79,0.82,-0.29,-1690298,5000627,3568745,0.001,0,-0.087,0.0059,-0.004,0.0022,0.001059,-0.003574,0.00242,0.962709423615338,-1.70352481740718,0.0629269093122337
108.6761378,34.240658,353.685,178.79,0.82,-0.29,-1690298,5000627,3568745,0.001,0,-0.087,0.0059,-0.004,-0.0074,-0.000568,-0.003862,0.002664,0.962656087248322,-1.70374450457596,0.0629637681513117
108.6761378,34.240658,353.645,178.79,0.82,-0.29,-1690298,5000627,3568745,0.001,0,-0.087,0.0059,-0.004,-0.0074,-0.000568,-0.003862,0.002664,0.962586023737066,-1.70354855995131,0.0628889878271454
108.6761378,34.240658,353.645,178.79,0.82,-0.29,-1690298,5000627,3568745,0.001,0,-0.087,-0.0046,-0.0035,-0.0074,-0.000668,-0.004187,0.003053,0.962404599269184,-1.70323061693057,0.0629490383678441
108.6761377,34.240658,353.61,178.79,0.82,-0.29,-1690298,5000627,3568745,0.001,0,-0.087,-0.0046,-0.0035,-0.0074,-0.000668,-0.004187,0.003053,0.962579838002436,-1.70344837941535,0.0631420018270402
108.6761377,34.240658,353.61,178.79,0.82,-0.29,-1690298,5000627,3568745,0.001,0,-0.088,-0.0047,-0.0036,-0.0074,-0.000668,-0.004187,0.003053,0.962676396951219,-1.70345862682927,0.0629460274390243
108.6761377,34.240658,353.61,178.79,0.82,-0.29,-1690298,5000627,3568745,0.001,0,-0.088,-0.0047,-0.0036,0.0021,-0.000963,-0.003506,0.002069,0.962739830085262,-1.70331450060901,0.0632629866017052
108.6761377,34.2406579,353.57,178.79,0.82,-0.29,-1690298,5000626,3568745,0.001,0,-0.088,-0.0047,-0.0036,0.0021,-0.000963,-0.003506,0.002069,0.962752608642727,-1.70346370602556,0.0628733524041387
108.6761377,34.2406579,353.57,178.79,0.82,-0.29,-1690298,5000626,3568745,0.001,0,-0.088,-0.0047,-0.0036,0.0023,0.000823,-0.003417,0.002495,0.962971543292683,-1.7036461804878,0.0631436414634146
108.6761377,34.2406579,353.53,178.79,0.82,-0.29,-1690298,5000626,3568745,0.001,0,-0.088,-0.0047,-0.0036,0.0023,0.000823,-0.003417,0.002495,0.96273431181486,-1.70373513215591,0.0631605736906212
108.6761377,34.2406579,353.53,178.79,0.82,-0.29,-1690298,5000626,3568745,0.001,0,-0.089,0.0058,-0.0035,0.012,0.001204,-0.004134,0.002403,0.962311764777574,-1.70378432236441,0.0629009073735527
108.6761377,34.2406579,353.494,178.79,0.82,-0.29,-1690298,5000626,3568745,0.001,0,-0.089,0.0058,-0.0035,0.012,0.001204,-0.004134,0.002403,0.962830883749239,-1.70379339074863,0.0629045368228849
108.6761377,34.2406579,353.494,178.79,0.82,-0.29,-1690298,5000626,3568745,0.001,0,-0.09,-0.0048,-0.0038,0.0021,0.001204,-0.004134,0.002403,0.962654264920828,-1.70350165712546,0.0628311260657734
108.6761377,34.2406579,353.494,178.79,0.82,-0.29,-1690298,5000626,3568745,0.001,0,-0.09,-0.0048,-0.0038,0.0021,0.000859,-0.004803,0.002347,0.962709542909312,-1.70349876323798,0.0629322964090079
108.6761377,34.2406579,353.453,178.79,0.82,-0.29,-1690298,5000626,3568745,0.001,0,-0.09,-0.0048,-0.0038,0.0021,0.000859,-0.004803,0.002347,0.962554313833029,-1.703416984156,0.0632868805606337
108.6761377,34.2406579,353.453,178.79,0.82,-0.29,-1690298,5000626,3568745,0.002,0,-0.09,-0.0047,-0.0036,0.0023,0.001381,-0.00315,0.002347,0.962082765853659,-1.70349431097561,0.0628108195121951
108.6761377,34.2406579,353.413,178.79,0.82,-0.29,-1690298,5000626,3568745,0.002,0,-0.09,-0.0047,-0.0036,0.0023,0.001381,-0.00315,0.001607,0.963042996954933,-1.70334801461632,0.0632242710109622
108.6761377,34.2406579,353.413,178.79,0.82,-0.29,-1690298,5000626,3568745,0.001,0,-0.091,-0.0049,-0.0039,0.0023,0.001381,-0.00315,0.001607,0.963136258379037,-1.70378282571603,0.0631287726995734
108.6761377,34.2406579,353.413,178.79,0.82,-0.29,-1690298,5000626,3568745,0.001,0,-0.091,-0.0049,-0.0039,0.0021,-2.7e-05,-0.002247,0.001965,0.962659070645554,-1.70379768392205,0.0627658154689403
108.6761377,34.2406579,353.372,178.79,0.82,-0.29,-1690298,5000626,3568745,0.001,0,-0.091,-0.0049,-0.0039,0.0021,-2.7e-05,-0.002247,0.001965,0.962985135118685,-1.70331132014607,0.0630975538648813
108.6761377,34.2406579,353.372,178.79,0.82,-0.29,-1690298,5000626,3568745,0.001,0,-0.091,-0.0047,-0.0036,0.0023,-0.000839,-0.003762,0.002738,0.963076507007922,-1.70386247410116,0.0627845326020719
108.6761377,34.2406579,353.331,178.79,0.82,-0.29,-1690298,5000626,3568745,0.001,0,-0.091,-0.0047,-0.0036,0.0023,-0.000839,-0.003762,0.002738,0.962741226277372,-1.70324278588808,0.062775355839416
108.6761377,34.2406579,353.331,178.79,0.82,-0.29,-1690298,5000626,3568745,0.001,0.001,-0.091,0.0061,0.0069,-0.0076,0.000696,-0.004311,0.002738,0.962463582571603,-1.70362231809872,0.0629934265691651
108.6761377,34.2406579,353.331,178.79,0.82,-0.29,-1690298,5000626,3568745,0.001,0.001,-0.091,0.0061,0.0069,-0.0076,0.000696,-0.004311,0.002016,0.96298202679659,-1.70348249817296,0.0628109537149817
108.6761377,34.2406579,353.294,178.79,0.82,-0.29,-1690298,5000626,3568745,0.001,0.001,-0.091,0.0061,0.0069,-0.0076,0.000696,-0.004311,0.002016,0.962822757760195,-1.70373608886184,0.06276889957395
108.6761377,34.2406579,353.294,178.79,0.82,-0.29,-1690298,5000626,3568745,0.001,0.001,-0.092,0.0061,0.0069,0.0023,-0.000164,-0.002713,0.002046,0.962267677242221,-1.70337176693106,0.0631702385600976
108.6761376,34.2406579,353.248,178.79,0.82,-0.29,-1690298,5000626,3568745,0.001,0.001,-0.092,0.0061,0.0069,0.0023,-0.000164,-0.002713,0.002046,0.962690979280926,-1.70332933942718,0.0628844162096282
108.6761376,34.2406579,353.248,178.79,0.82,-0.29,-1690298,5000626,3568745,0.002,0.001,-0.092,0.0062,0.0071,0.0021,-0.001224,-0.002713,0.002046,0.962876644512195,-1.70362142134146,0.0630168579268292
108.6761376,34.2406579,353.248,178.79,0.82,-0.29,-1690298,5000626,3568745,0.002,0.001,-0.092,0.0062,0.0071,0.0021,-0.001224,-0.004409,0.002386,0.962982137111517,-1.70359091895186,0.0630422943327239
108.6761376,34.2406579,353.206,178.79,0.82,-0.29,-1690298,5000626,3568745,0.001,0.001,-0.093,0.0062,0.0071,0.0021,-0.001224,-0.004409,0.002386,0.962599673369896,-1.70359879280926,0.0628116886045094
108.6761376,34.2406579,353.206,178.79,0.82,-0.29,-1690298,5000626,3568745,0.001,0.001,-0.093,-0.0048,0.0071,0.0021,-0.000266,-0.002608,0.002287,0.963273534671533,-1.70396410827251,0.0629368923357664
108.6761376,34.2406579,353.169,178.79,0.82,-0.29,-1690298,5000626,3568745,0.001,0.001,-0.093,-0.0048,0.0071,0.0021,-0.000266,-0.002608,0.002287,0.962967846715328,-1.70376295255474,0.063081402676399
108.6761376,34.2406579,353.169,178.79,0.82,-0.29,-1690298,5000626,3568745,0.001,0.001,-0.093,-0.0045,0.0073,-0.0074,0.000393,-0.003817,0.002287,0.962318335775336,-1.70368051221001,0.0628871819291819
108.6761376,34.2406579,353.127,178.79,0.82,-0.29,-1690298,5000626,3568745,0.001,0.001,-0.093,-0.0045,0.0073,-0.0074,0.000393,-0.003817,0.002366,0.963089919610231,-1.70371081546894,0.0625256979293544
108.6761376,34.2406579,353.127,178.79,0.82,-0.29,-1690298,5000626,3568745,0.001,0.001,-0.093,-0.0046,0.0073,-0.0074,0.000393,-0.003817,0.002366,0.962941769652651,-1.70358440463132,0.0627753784277879
108.6761376,34.2406579,353.127,178.79,0.82,-0.29,-1690298,5000626,3568745,0.001,0.001,-0.093,-0.0046,0.0071,-0.0073,0.000988,-0.005206,0.001787,0.96289703410475,-1.70381669792935,0.0630837917174177
108.6761376,34.2406578,353.085,178.79,0.82,-0.29,-1690298,5000626,3568745,0.001,0.001,-0.093,-0.0046,0.0071,-0.0073,0.000988,-0.005206,0.001787,0.962894938987187,-1.7039848828554,0.0629705686394142
108.6761376,34.2406578,353.085,178.79,0.82,-0.29,-1690298,5000626,3568745,0.002,0,-0.094,0.0059,-0.0035,0.012,0.000988,-0.005206,0.001787,0.96238007007922,-1.70361634186472,0.0626534186471663
108.6761376,34.2406578,353.085,178.79,0.82,-0.29,-1690298,5000626,3568745,0.002,0,-0.094,0.0059,-0.0035,0.012,-0.000314,-0.003062,0.002674,0.962631637804878,-1.70379984695122,0.0630100274390243
108.6761376,34.2406578,353.042,178.79,0.82,-0.29,-1690298,5000626,3568745,0.002,0,-0.094,0.0059,-0.0035,0.012,-0.000314,-0.003062,0.002674,0.963123655487805,-1.70365903231707,0.0630001609756097
108.6761376,34.2406578,353.042,178.79,0.82,-0.29,-1690298,5000626,3568745,0.002,0,-0.095,0.0059,-0.004,0.0023,6e-06,-0.003629,0.002674,0.962987498170732,-1.70363804939024,0.0629558591463414
108.6761376,34.2406578,352.995,178.79,0.82,-0.29,-1690298,5000626,3568745,0.002,0,-0.095,0.0059,-0.004,0.0023,6e-06,-0.003629,0.002088,0.96285168738574,-1.70373125472273,0.0631397635588056
108.6761376,34.2406578,352.995,178.79,0.82,-0.29,-1690298,5000626,3568745,0.002,0,-0.095,0.0059,-0.0035,0.0023,6e-06,-0.003629,0.002088,0.96311696772229,-1.70360970219245,0.063068215590743
108.6761376,34.2406578,352.995,178.79,0.82,-0.29,-1690298,5000626,3568745,0.002,0,-0.095,0.0059,-0.0035,0.012,5.2e-05,-0.003787,0.002681,0.962512043902439,-1.70382374878049,0.0630222890243902
108.6761376,34.2406578,352.957,178.79,0.82,-0.29,-1690298,5000626,3568745,0.001,0,-0.095,0.0059,-0.0035,0.012,5.2e-05,-0.003787,0.002681,0.962030782184259,-1.7036205899939,0.0630209945088468
108.6761376,34.2406578,352.957,178.79,0.82,-0.29,-1690298,5000626,3568745,0.001,0,-0.095,0.0059,-0.004,-0.0074,0.00067,-0.002432,0.002844,0.962808446678854,-1.7037102675198,0.0626152090188909
108.6761376,34.2406578,352.918,178.79,0.82,-0.29,-1690298,5000626,3568745,0.001,0,-0.095,0.0059,-0.004,-0.0074,0.00067,-0.002432,0.002844,0.962741715155204,-1.70347410651248,0.0629371332927571
108.6761376,34.2406578,352.918,178.79,0.82,-0.29,-1690298,5000626,3568745,0.001,0,-0.096,-0.0048,-0.0038,0.0023,-0.000547,-0.002432,0.002844,0.96262185940353,-1.70319329153987,0.0628521113816189
108.6761375,34.2406578,352.918,178.79,0.82,-0.29,-1690298,5000626,3568745,0.001,0,-0.096,-0.0048,-0.0038,0.0023,-0.000547,-0.004805,0.002649,0.962765447897623,-1.70381817245582,0.0630234485070079
108.6761375,34.2406578,352.87,178.79,0.82,-0.29,-1690298,5000626,3568745,0.001,0,-0.096,-0.0048,-0.0038,0.0023,-0.000547,-0.004805,0.002649,0.962917088360756,-1.7036697599025,0.0628259616087751
108.6761375,34.2406578,352.87,178.79,0.82,-0.29,-1690298,5000626,3568745,0.002,0,-0.096,0.0059,-0.004,-0.0073,0.000442,-0.002559,0.002001,0.963180459146341,-1.70413097865854,0.0629808518292682
108.6761375,34.2406578,352.832,178.79,0.82,-0.29,-1690298,5000626,3568745,0.002,0,-0.096,0.0059,-0.004,-0.0073,0.000442,-0.002559,0.002001,0.96291611097561,-1.70368888353659,0.0631379420731707
108.6761375,34.2406578,352.832,178.79,0.82,-0.29,-1690298,5000626,3568745,0.002,0.001,-0.097,-0.0045,0.0073,-0.0073,0.000442,-0.002559,0.002001,0.962400291641244,-1.703817366687,0.0631269371568029
108.6761375,34.2406578,352.788,178.79,0.82,-0.29,-1690298,5000626,3568745,0.002,0.001,-0.097,-0.0045,0.0073,0.0022,0.00051,-0.002888,0.003003,0.962885704697987,-1.7037580195241,0.0630117187309335
108.6761375,34.2406578,352.788,178.79,0.82,-0.29,-1690298,5000626,3568745,0.002,0,-0.097,-0.0045,0.0073,0.0022,0.00051,-0.002888,0.003003,0.962866530773918,-1.70356777087142,0.063051410115783
108.6761375,34.2406578,352.788,178.79,0.82,-0.29,-1690298,5000626,3568745,0.002,0,-0.097,0.006,0.0073,0.0022,0.000394,-0.004067,0.003216,0.962703611449452,-1.70351597868453,0.0629076169305724
108.6761375,34.2406578,352.744,178.79,0.82,-0.29,-1690298,5000626,3568745,0.002,0,-0.097,0.006,0.0073,0.0022,0.000394,-0.004067,0.003216,0.962788834146342,-1.70346758109756,0.0629842902439024
108.6761375,34.2406578,352.744,178.79,0.82,-0.29,-1690298,5000626,3568745,0.002,0.001,-0.097,0.006,-0.0038,0.0023,0.000631,-0.003209,0.002545,0.962794765386959,-1.70358389640463,0.0630113406459476
108.6761375,34.2406578,352.705,178.79,0.82,-0.29,-1690298,5000626,3568745,0.002,0.001,-0.097,0.006,-0.0038,0.0023,0.000631,-0.003209,0.002545,0.962961310786106,-1.70386299390615,0.0628453461304082
108.6761375,34.2406578,352.705,178.79,0.82,-0.29,-1690298,5000626,3568745,0.001,0.001,-0.098,0.006,-0.0038,0.0023,0.000631,-0.003209,0.002545,0.962493460694698,-1.70403964107252,0.0627486502132845
108.6761375,34.2406578,352.705,178.79,0.82,-0.29,-1690298,5000626,3568745,0.001,0.001,-0.098,-0.0048,0.0072,0.0118,0.001158,-0.004047,0.001689,0.962781107795372,-1.70355530389769,0.0628154171741778
108.6761375,34.2406578,352.661,178.79,0.82,-0.29,-1690298,5000626,3568745,0.001,0.001,-0.098,-0.0048,0.0072,0.0118,0.001158,-0.004047,0.001689,0.96247214695122,-1.7037899554878,0.062932912804878
108.6761375,34.2406578,352.661,178.79,0.82,-0.29,-1690298,5000626,3568745,0.001,0,-0.098,-0.0048,-0.0038,0.0022,0.001175,-0.004073,0.002387,0.963073082725061,-1.7038057256691,0.0625662360097323
108.6761375,34.2406577,352.612,178.79,0.82,-0.29,-1690298,5000626,3568745,0.001,0,-0.098,-0.0048,-0.0038,0.0022,0.001175,-0.004073,0.002387,0.96302224756691,-1.70382685705596,0.062743557785888
108.6761375,34.2406577,352.612,178.79,0.82,-0.29,-1690298,5000626,3568745,0.002,0,-0.099,0.0059,-0.004,0.0022,-0.000468,-0.004073,0.002387,0.962817572472594,-1.70387441595615,0.0632325785627283
108.6761375,34.2406577,352.612,178.79,0.82,-0.29,-1690298,5000626,3568745,0.002,0,-0.099,0.0059,-0.004,0.0022,-0.000468,-0.003627,0.002265,0.963175093788063,-1.70384695554202,0.0624940968331303
108.6761375,34.2406577,352.572,178.79,0.82,-0.29,-1690298,5000626,3568745,0.002,0.001,-0.099,0.0059,-0.004,0.0022,-0.000468,-0.003627,0.002265,0.963094400851582,-1.70361415024331,0.0627998886861313
108.6761375,34.2406577,352.572,178.79,0.82,-0.29,-1690298,5000626,3568745,0.002,0.001,-0.099,0.0058,-0.0041,-0.0171,0.002162,-0.00452,0.002354,0.963055948842875,-1.70370972168088,0.0628239512789281
108.6761374,34.2406577,352.527,178.79,0.82,-0.29,-1690298,5000626,3568745,0.002,0.001,-0.099,0.0058,-0.0041,-0.0171,0.002162,-0.00452,0.002354,0.962697612804878,-1.70398541341463,0.0629497365853658
108.6761374,34.2406577,352.527,178.79,0.82,-0.29,-1690298,5000626,3568745,0.001,0.001,-0.099,0.0061,0.0069,-0.0076,0.001331,-0.003437,0.002431,0.962832573430835,-1.70378263924436,0.0632560249847653
108.6761374,34.2406577,352.482,178.79,0.82,-0.29,-1690298,5000626,3568745,0.001,0.001,-0.099,0.0061,0.0069,-0.0076,0.001331,-0.003437,0.002431,0.962847525547445,-1.70362195620438,0.0627655748175182
108.6761374,34.2406577,352.482,178.79,0.82,-0.29,-1690298,5000626,3568745,0.001,0.001,-0.099,0.0061,0.0069,-0.0076,0.001331,-0.003437,0.002431,0.963075327649208,-1.70365463337393,0.0632849360535931
108.6761374,34.2406577,352.482,178.79,0.82,-0.29,-1690298,5000626,3568745,0.001,0.001,-0.099,-0.0046,0.007,-0.0076,0.002328,-0.003835,0.001841,0.963022921998781,-1.70368788909202,0.0630083199268738
108.6761374,34.2406577,352.437,178.79,0.82,-0.29,-1690298,5000626,3568745,0.001,0.001,-0.099,-0.0046,0.007,-0.0076,0.002328,-0.003835,0.001841,0.962786109555691,-1.70360225319537,0.0629368654899574
108.6761374,34.2406577,352.437,178.79,0.82,-0.29,-1690298,5000626,3568745,0.002,0.001,-0.1,-0.0046,0.0071,-0.0075,0.000221,-0.002165,0.001841,0.962716229878049,-1.70376297134146,0.0630033640243902
108.6761374,34.2406577,352.392,178.79,0.82,-0.29,-1690298,5000626,3568745,0.002,0.001,-0.1,-0.0046,0.0071,-0.0075,0.000221,-0.002165,0.002473,0.962970797684339,-1.70354320414381,0.0629643321145643
108.6761374,34.2406577,352.392,178.79,0.82,-0.29,-1690297,5000626,3568745,0.002,0.001,-0.101,-0.0045,0.0073,-0.0075,0.000221,-0.002165,0.002473,0.962606367458866,-1.70373258744668,0.0632552145033516
108.6761374,34.2406577,352.392,178.79,0.82,-0.29,-1690297,5000626,3568745,0.002,0.001,-0.101,-0.0045,0.0073,0.0022,0.001104,-0.003329,0.002579,0.963050965243902,-1.70399539695122,0.0629802
108.6761374,34.2406577,352.351,178.79,0.82,-0.29,-1690297,5000626,3568745,0.002,0.001,-0.101,-0.0045,0.0073,0.0022,0.001104,-0.003329,0.002579,0.962949888009738,-1.70380310590383,0.0628731162507608
108.6761374,34.2406577,352.351,178.79,0.82,-0.29,-1690297,5000626,3568745,0.002,0,-0.101,-0.0047,-0.0036,0.0023,0.000706,-0.002815,0.002579,0.962934378427788,-1.70410975380865,0.0631422199878123
108.6761374,34.2406577,352.306,178.79,0.82,-0.29,-1690297,5000626,3568745,0.002,0,-0.101,-0.0047,-0.0036,0.0023,0.000706,-0.002815,0.002058,0.962928307785888,-1.70385962104623,0.062947155109489
108.6761374,34.2406577,352.306,178.79,0.82,-0.29,-1690297,5000626,3568745,0.002,0.001,-0.101,0.0062,0.0071,0.0021,0.000706,-0.002815,0.002058,0.962758252894576,-1.70378812858013,0.0627740859232175
108.6761374,34.2406577,352.265,178.79,0.82,-0.29,-1690297,5000626,3568745,0.002,0.001,-0.101,0.0062,0.0071,0.0021,0.0018,-0.002107,0.002564,0.96231076402439,-1.70396669817073,0.0626144195121951
108.6761374,34.2406577,352.265,178.79,0.82,-0.29,-1690297,5000626,3568745,0.001,0.001,-0.102,-0.0047,0.0071,0.0021,0.0018,-0.002107,0.002564,0.962794671741778,-1.70355695676005,0.0631100261875761
108.6761374,34.2406577,352.265,178.79,0.82,-0.29,-1690297,5000626,3568745,0.001,0.001,-0.102,-0.0047,-0.0036,0.0118,-0.00213,-0.002952,0.003101,0.962619936546675,-1.70397934289201,0.0624826802928615
108.6761374,34.2406577,352.219,178.79,0.82,-0.29,-1690297,5000625,3568745,0.002,0.001,-0.102,-0.0047,-0.0036,0.0118,-0.00213,-0.002952,0.003101,0.963061609384522,-1.70404731687995,0.062956127361365
108.6761374,34.2406577,352.219,178.79,0.82,-0.29,-1690297,5000625,3568745,0.002,0.001,-0.102,0.006,-0.0038,-0.0073,0.003919,-0.004537,0.001054,0.962805395377129,-1.70348377798054,0.0629644963503649
108.6761373,34.2406576,352.178,178.79,0.82,-0.29,-1690297,5000625,3568745,0.002,0.001,-0.102,0.006,-0.0038,-0.0073,0.003919,-0.004537,0.001054,0.963041080998782,-1.70388759500609,0.0627020694275274
108.6761373,34.2406576,352.178,178.79,0.82,-0.29,-1690297,5000625,3568745,0.002,0,-0.102,0.0059,-0.0039,-0.0073,0.003919,-0.004537,0.001054,0.963342521315469,-1.70391394031669,0.0632810152253349
108.6761373,34.2406576,352.178,178.79,0.82,-0.29,-1690297,5000625,3568745,0.002,0,-0.102,0.0059,-0.0039,-0.0073,-5.7e-05,-0.003634,0.002413,0.962712643292683,-1.70387670670732,0.0629944786585365
108.6761373,34.2406576,352.131,178.79,0.82,-0.29,-1690297,5000625,3568744,0.001,0,-0.102,0.0059,-0.0039,-0.0073,-5.7e-05,-0.003634,0.002413,0.963139585514303,-1.70398236214242,0.0629886999391357
108.6761373,34.2406576,352.131,178.79,0.82,-0.29,-1690297,5000625,3568744,0.001,0,-0.103,-0.0047,-0.0036,0.0023,0.000922,-0.003538,0.001884,0.962897782317073,-1.70365171646341,0.0630017676829268
108.6761373,34.2406576,352.09,178.79,0.82,-0.29,-1690297,5000625,3568744,0.001,0,-0.103,-0.0047,-0.0036,0.0023,0.000922,-0.003538,0.001884,0.962974484146342,-1.70421362073171,0.0631724243902439
108.6761373,34.2406576,352.09,178.79,0.82,-0.29,-1690297,5000625,3568744,0.001,0.001,-0.104,-0.0047,-0.0036,0.0023,-0.000919,-0.003328,0.002783,0.962815543292683,-1.70394220243902,0.0630688743902439
108.6761373,34.2406576,352.043,178.79,0.82,-0.29,-1690297,5000625,3568744,0.001,0.001,-0.104,-0.0047,-0.0036,0.0023,-0.000919,-0.003328,0.002783,0.962796545066992,-1.70369818270402,0.062919137637028
108.6761373,34.2406576,352.043,178.79,0.82,-0.29,-1690297,5000625,3568744,0.002,0,-0.104,-0.0047,-0.0036,0.0023,-0.000919,-0.003328,0.002783,0.962619417783191,-1.70373417965895,0.0629491339829476
108.6761373,34.2406576,352.043,178.79,0.82,-0.29,-1690297,5000625,3568744,0.002,0,-0.104,0.0061,-0.0037,-0.0073,0.001427,-0.003794,0.002521,0.962889092739475,-1.7039822147651,0.0629677669310555
108.6761373,34.2406576,351.996,178.79,0.82,-0.29,-1690297,5000625,3568744,0.002,0,-0.104,0.0061,-0.0037,-0.0073,0.001427,-0.003794,0.002521,0.962131442682927,-1.70383002195122,0.0626395164634146
108.6761373,34.2406576,351.996,178.79,0.82,-0.29,-1690297,5000625,3568744,0.002,0,-0.104,0.006,-0.0038,0.0023,-0.000609,-0.003934,0.001996,0.962489898780488,-1.70369379573171,0.0629323987804878
108.6761373,34.2406576,351.954,178.79,0.82,-0.29,-1690297,5000625,3568744,0.002,0,-0.104,0.006,-0.0038,0.0023,-0.000609,-0.003934,0.001996,0.9628711023766,-1.70363260694698,0.0629409536867763
108.6761373,34.2406576,351.954,178.79,0.82,-0.29,-1690297,5000625,3568744,0.002,0,-0.105,-0.0048,-0.0037,0.0023,0.00037,-0.004598,0.001996,0.962937495121951,-1.70418891036585,0.0633052164634146
108.6761373,34.2406576,351.954,178.79,0.82,-0.29,-1690297,5000625,3568744,0.002,0,-0.105,-0.0048,-0.0037,0.0023,0.00037,-0.004598,0.00232,0.963199141205112,-1.7038010797322,0.0631187206329884
108.6761373,34.2406576,351.907,178.79,0.82,-0.29,-1690297,5000625,3568744,0.001,0,-0.105,-0.0048,-0.0037,0.0023,0.00037,-0.004598,0.00232,0.962780917022575,-1.70400524039048,0.0630147754728493
108.6761373,34.2406576,351.907,178.79,0.82,-0.29,-1690297,5000625,3568744,0.001,0,-0.106,-0.0048,-0.0037,0.0023,-1.6e-05,-0.002805,0.002204,0.963085397318708,-1.70406434978672,0.0629334564290067
108.6761373,34.2406576,351.859,178.79,0.82,-0.29,-1690297,5000625,3568744,0.001,0,-0.106,-0.0048,-0.0037,0.0023,-1.6e-05,-0.002805,0.002204,0.96305537804878,-1.70404988353659,0.0630703890243902
108.6761373,34.2406576,351.859,178.79,0.82,-0.29,-1690297,5000625,3568744,0.002,0,-0.106,0.0062,-0.0036,0.0023,-0.000565,-0.004002,0.002367,0.963303937842779,-1.70410676416819,0.0630776806825106
108.6761372,34.2406576,351.859,178.79,0.82,-0.29,-1690297,5000625,3568744,0.002,0,-0.106,0.0062,-0.0036,0.0023,-0.000565,-0.004002,0.002367,0.96322303045067,-1.70396788002436,0.0628488775883069
108.6761372,34.2406576,351.816,178.79,0.82,-0.29,-1690297,5000625,3568744,0.002,0.001,-0.106,0.0062,-0.0036,0.0023,-0.000565,-0.004002,0.002367,0.963128593426658,-1.70383316311625,0.0629546962872793
108.6761372,34.2406576,351.816,178.79,0.82,-0.29,-1690297,5000625,3568744,0.002,0.001,-0.106,0.0061,0.007,-0.0073,-0.000682,-0.001841,0.002307,0.963268322973796,-1.70413813223644,0.0628079055453991
108.6761372,34.2406576,351.768,178.79,0.82,-0.29,-1690297,5000625,3568744,0.002,0.001,-0.106,0.0061,0.007,-0.0073,-0.000682,-0.001841,0.002307,0.963423684338818,-1.70441367946374,0.0629296282754418
108.6761372,34.2406576,351.768,178.79,0.82,-0.29,-1690297,5000625,3568744,0.002,0.001,-0.107,-0.0045,0.0073,-0.0074,0.00038,-0.004125,0.002658,0.963217752589884,-1.70419875015235,0.0630403272394881
108.6761372,34.2406575,351.72,178.79,0.82,-0.29,-1690297,5000625,3568744,0.002,0.001,-0.107,-0.0045,0.0073,-0.0074,0.00038,-0.004125,0.002658,0.963212962195122,-1.70436519268293,0.0632069957317073
108.6761372,34.2406575,351.72,178.79,0.82,-0.29,-1690297,5000625,3568744,0.002,0.001,-0.107,-0.0044,0.0075,-0.0171,0.00038,-0.004125,0.002658,0.962814473491773,-1.70423077391834,0.0627812937233394
108.6761372,34.2406575,351.72,178.79,0.82,-0.29,-1690297,5000625,3568744,0.002,0.001,-0.107,-0.0044,0.0075,-0.0171,0.001155,-0.003376,0.002488,0.963051877737226,-1.70363148844282,0.0629981423357664
108.6761372,34.2406575,351.672,178.79,0.82,-0.29,-1690297,5000625,3568744,0.002,0.001,-0.107,-0.0044,0.0075,-0.0171,0.001155,-0.003376,0.002488,0.963039668696712,-1.7041129591961,0.0629249025578562
108.6761372,34.2406575,351.672,178.79,0.82,-0.29,-1690297,5000625,3568744,0.002,0,-0.108,-0.0047,-0.0036,0.0023,0.000208,-0.003213,0.001923,0.96295018453106,-1.70375036297199,0.0632871565164433
108.6761372,34.2406575,351.623,178.79,0.82,-0.29,-1690297,5000625,3568744,0.002,0,-0.108,-0.0047,-0.0036,0.0023,0.000208,-0.003213,0.001923,0.96294226097561,-1.70396684451219,0.0630883512195121
108.6761372,34.2406575,351.623,178.79,0.82,-0.29,-1690297,5000625,3568744,0.002,0,-0.108,0.0061,-0.0037,-0.0073,-0.000594,-0.00303,0.002505,0.96285549725777,-1.70392249542962,0.0633133126142596
108.6761372,34.2406575,351.58,178.79,0.82,-0.29,-1690297,5000625,3568744,0.002,0,-0.108,0.0061,-0.0037,-0.0073,-0.000594,-0.00303,0.002505,0.96309651097561,-1.70401836402439,0.062813562804878
108.6761372,34.2406575,351.58,178.79,0.82,-0.29,-1690297,5000625,3568744,0.002,0.001,-0.108,0.0061,0.007,0.0023,-0.000594,-0.00303,0.002505,0.962318424205379,-1.70406828422983,0.0628508129584352
108.6761372,34.2406575,351.531,178.79,0.82,-0.29,-1690297,5000625,3568744,0.002,0.001,-0.108,0.0061,0.007,0.0023,-0.002167,-0.004349,0.00227,0.963234532886724,-1.70402013032887,0.0629733922046285
108.6761372,34.2406575,351.531,178.79,0.82,-0.29,-1690297,5000625,3568744,0.002,0.001,-0.108,-0.0047,0.007,-0.0171,-0.002167,-0.004349,0.00227,0.963024905602923,-1.7040891638246,0.0629678483556638
108.6761372,34.2406575,351.531,178.79,0.82,-0.29,-1690297,5000625,3568744,0.002,0.001,-0.108,-0.0047,0.007,-0.0171,0.00107,-0.003289,0.002773,0.963028394512195,-1.70411861890244,0.0629838304878048
108.6761372,34.2406575,351.488,178.79,0.82,-0.29,-1690297,5000625,3568744,0.001,0.001,-0.109,-0.0047,0.007,-0.0171,0.00107,-0.003289,0.002773,0.963378631931749,-1.70429828519196,0.0629151511273613
108.6761372,34.2406575,351.488,178.79,0.82,-0.29,-1690297,5000625,3568744,0.001,0.001,-0.109,-0.0048,0.0073,0.0022,0.000307,-0.003802,0.002733,0.962698207190737,-1.70406630956734,0.0628116416819012
108.6761371,34.2406575,351.438,178.79,0.82,-0.29,-1690297,5000625,3568744,0.002,0.001,-0.109,-0.0048,0.0073,0.0022,0.000307,-0.003802,0.002733,0.963008415956151,-1.70386879293544,0.0627709062119366
108.6761371,34.2406575,351.438,178.79,0.82,-0.29,-1690297,5000625,3568744,0.002,0.001,-0.109,0.0059,-0.0039,-0.0075,0.001589,-0.003739,0.001745,0.962938794386821,-1.70410043502135,0.0631205143380109
108.6761371,34.2406575,351.389,178.79,0.82,-0.29,-1690297,5000625,3568744,0.002,0.001,-0.109,0.0059,-0.0039,-0.0075,0.001589,-0.003739,0.001745,0.962539789119804,-1.70421982701711,0.0631932866748166
108.6761371,34.2406575,351.389,178.79,0.82,-0.29,-1690297,5000625,3568744,0.002,0.001,-0.11,-0.0047,0.0073,0.0118,-0.000481,-0.00456,0.003195,0.962962203410475,-1.70407623264312,0.0632331059683313
108.6761371,34.2406575,351.339,178.79,0.82,-0.29,-1690297,5000625,3568744,0.002,0.001,-0.11,-0.0047,0.0073,0.0118,-0.000481,-0.00456,0.003195,0.963060585261876,-1.70406169610231,0.0629835998781973
108.6761371,34.2406575,351.339,178.79,0.82,-0.29,-1690297,5000625,3568744,0.002,0.001,-0.11,0.0061,0.007,-0.0076,0.002347,-0.00456,0.003195,0.963175699513382,-1.70408511435523,0.0630555200729927
108.6761371,34.2406575,351.295,178.79,0.82,-0.29,-1690297,5000625,3568744,0.002,0.001,-0.11,0.0061,0.007,-0.0076,0.002347,-0.002793,0.000452,0.963024352618758,-1.70385996041413,0.0629834305724725
108.6761371,34.2406575,351.295,178.79,0.82,-0.29,-1690297,5000625,3568744,0.002,0.001,-0.11,-0.0047,-0.0035,-0.0076,-0.004828,-0.002793,0.000452,0.963049156707317,-1.70415737682927,0.0628935920731707
108.6761371,34.2406574,351.245,178.79,0.82,-0.29,-1690297,5000625,3568744,0.002,0.001,-0.11,-0.0047,-0.0035,-0.0076,-0.004828,-0.004467,0.006245,0.963370413017032,-1.70437921107056,0.0628955845498783
108.6761371,34.2406574,351.245,178.79,0.82,-0.29,-1690297,5000625,3568744,0.002,0.001,-0.111,-0.0048,-0.0035,-0.0076,-0.004828,-0.004467,0.006245,0.963027412804878,-1.70427841036585,0.0631114945121951
108.6761371,34.2406574,351.245,178.79,0.82,-0.29,-1690297,5000625,3568744,0.002,0.001,-0.111,-0.0048,-0.0037,0.0118,0.001519,-0.004114,0.000713,0.963250865853659,-1.70402373658537,0.0627639280487804
108.6761371,34.2406574,351.194,178.79,0.82,-0.29,-1690297,5000625,3568744,0.002,0.001,-0.111,-0.0048,-0.0037,0.0118,0.001519,-0.004114,0.000713,0.963361079780755,-1.704192636419,0.0633036729598051
108.6761371,34.2406574,351.194,178.79,0.82,-0.29,-1690297,5000625,3568744,0.002,0.001,-0.112,-0.0046,-0.0035,0.012,0.002714,-0.00401,0.003125,0.963250690809495,-1.70445229640901,0.0629080030432136
108.6761371,34.2406574,351.144,178.79,0.82,-0.29,-1690297,5000625,3568744,0.002,0.001,-0.112,-0.0046,-0.0035,0.012,0.002714,-0.00401,0.003125,0.963441001216545,-1.70395607603406,0.0629385030413625
108.6761371,34.2406574,351.144,178.79,0.82,-0.29,-1690297,5000625,3568744,0.002,0.001,-0.112,0.006,-0.0038,-0.0075,-5.3e-05,-0.003483,0.003125,0.963115917682927,-1.7042994652439,0.0628492109756097
108.676137,34.2406574,351.093,178.79,0.82,-0.29,-1690297,5000625,3568744,0.002,0.001,-0.112,0.006,-0.0038,-0.0075,-5.3e-05,-0.003483,0.002193,0.962776725776965,-1.70431275563681,0.0627856112126752
108.676137,34.2406574,351.093,178.79,0.82,-0.29,-1690297,5000625,3568744,0.002,0.001,-0.113,0.0059,-0.0038,-0.0075,-5.3e-05,-0.003483,0.002193,0.962956599755949,-1.70439172056132,0.0632199975594875
108.676137,34.2406574,351.042,178.79,0.82,-0.29,-1690297,5000625,3568744,0.002,0.001,-0.113,0.0059,0.0072,-0.0075,-0.000387,-0.003907,0.002485,0.963094274557657,-1.70428296034167,0.0629187193410616
108.676137,34.2406574,351.042,178.79,0.82,-0.29,-1690297,5000625,3568744,0.002,0.001,-0.113,-0.0048,0.0071,-0.0075,-0.000387,-0.003907,0.002485,0.962719798903108,-1.70412658805606,0.0630577538086532
108.676137,34.2406574,351.042,178.79,0.82,-0.29,-1690297,5000625,3568744,0.002,0.001,-0.113,-0.0048,0.0071,0.0021,-0.001145,-0.003883,0.002474,0.963226977493917,-1.70417112408759,0.0628601624087591
108.676137,34.2406574,350.991,178.79,0.82,-0.29,-1690297,5000625,3568744,0.002,0.001,-0.113,-0.0048,-0.0037,0.0118,-0.001145,-0.003883,0.002474,0.962511167580743,-1.70427847166362,0.062601987202925
108.676137,34.2406574,350.991,178.79,0.82,-0.29,-1690297,5000625,3568744,0.002,0.001,-0.113,-0.0048,-0.0037,0.0118,0.001978,-0.003347,0.00201,0.962735558465286,-1.70390627101096,0.0628864238733252
108.676137,34.2406574,350.946,178.79,0.82,-0.29,-1690297,5000625,3568744,0.002,0.001,-0.114,-0.0048,-0.0037,0.0118,0.001978,-0.003347,0.00201,0.963072557856273,-1.70429651644336,0.0630916857490864
108.676137,34.2406574,350.946,178.79,0.82,-0.29,-1690297,5000625,3568744,0.002,0.001,-0.114,-0.0047,-0.0036,0.0022,0.000631,-0.003852,0.002864,0.963054233536585,-1.70418095365854,0.0627152243902439
108.676137,34.2406574,350.894,178.79,0.82,-0.29,-1690297,5000624,3568744,0.002,0.001,-0.114,-0.0047,-0.0036,0.0022,0.000631,-0.003852,0.002864,0.963122765386959,-1.70420741560024,0.0626312065813528
108.676137,34.2406574,350.894,178.79,0.82,-0.29,-1690297,5000624,3568744,0.002,0.001,-0.115,-0.0049,-0.0039,0.0118,0.001069,-0.003852,0.002864,0.963042487507617,-1.70428365935405,0.0627907014015844
108.676137,34.2406574,350.843,178.79,0.82,-0.29,-1690297,5000624,3568744,0.002,0.001,-0.115,-0.0049,-0.0039,0.0118,0.001069,-0.003554,0.002326,0.96312761182206,-1.70423261608775,0.0627883607556368
108.676137,34.2406574,350.843,178.79,0.82,-0.29,-1690297,5000624,3568744,0.002,0.001,-0.115,0.006,-0.0038,0.0118,0.001069,-0.003554,0.002326,0.962918792682927,-1.70433974817073,0.0630188445121951
108.676137,34.2406574,350.791,178.79,0.82,-0.29,-1690297,5000624,3568744,0.002,0.001,-0.115,0.006,-0.0038,0.0022,-9.6e-05,-0.004303,0.002228,0.963060161898965,-1.70414146378576,0.062954716981132
108.676137,34.2406574,350.791,178.79,0.82,-0.29,-1690297,5000624,3568744,0.002,0.001,-0.115,0.006,-0.0038,0.0022,-9.6e-05,-0.004303,0.002228,0.963096992068334,-1.70431135448444,0.0629999548505186
108.6761369,34.2406574,350.791,178.79,0.82,-0.29,-1690297,5000624,3568744,0.002,0.001,-0.115,0.006,0.0068,0.0023,-3.2e-05,-0.00291,0.002512,0.963325623780488,-1.70431730853659,0.0631754219512195
108.6761369,34.2406573,350.739,178.79,0.82,-0.29,-1690297,5000624,3568744,0.002,0.001,-0.116,-0.0048,0.0068,0.0023,-3.2e-05,-0.00291,0.002512,0.962470403412553,-1.70415085252895,0.0627654533820841
108.6761369,34.2406573,350.739,178.79,0.82,-0.29,-1690297,5000624,3568744,0.002,0.001,-0.116,-0.0048,0.007,-0.0076,-0.000497,-0.003203,0.00249,0.963471813260341,-1.7041520243309,0.0629785200729927
108.6761369,34.2406573,350.693,178.79,0.82,-0.29,-1690297,5000624,3568744,0.002,0.001,-0.116,-0.0048,0.007,-0.0076,-0.000497,-0.003203,0.00249,0.963375955569081,-1.70414409312234,0.0629582586731588
108.6761369,34.2406573,350.693,178.79,0.82,-0.29,-1690297,5000624,3568744,0.002,0.001,-0.116,-0.0048,-0.0037,0.0021,-0.00051,-0.002739,0.002619,0.962782321123321,-1.70432471428571,0.0630795396825396
108.6761369,34.2406573,350.64,178.79,0.82,-0.29,-1690297,5000624,3568744,0.002,0.001,-0.116,-0.0048,-0.0037,0.0021,-0.00051,-0.002739,0.002619,0.962621091575092,-1.70456198351648,0.0630144938949939
108.6761369,34.2406573,350.64,178.79,0.82,-0.29,-1690297,5000624,3568744,0.002,0.001,-0.117,0.0059,-0.0036,0.0023,-0.000911,-0.004141,0.002127,0.963186751371115,-1.70443310664229,0.0628557367458866
108.6761369,34.2406573,350.594,178.79,0.82,-0.29,-1690297,5000624,3568744,0.002,0.001,-0.117,0.0059,-0.0036,0.0023,-0.000911,-0.004141,0.002127,0.962596111653447,-1.704279561928,0.0631863038438072
108.6761369,34.2406573,350.594,178.79,0.82,-0.29,-1690297,5000624,3568744,0.002,0.001,-0.117,0.0059,-0.0039,-0.0073,-0.000936,-0.001327,0.002603,0.963131007912356,-1.70432455508217,0.0626452032866707
108.6761369,34.2406573,350.541,178.79,0.82,-0.29,-1690297,5000624,3568744,0.002,0.001,-0.117,0.0059,-0.0039,-0.0073,-0.000936,-0.001327,0.002603,0.963018705596107,-1.70426008576642,0.0628085103406326
108.6761369,34.2406573,350.541,178.79,0.82,-0.29,-1690297,5000624,3568744,0.002,0.001,-0.117,-0.0048,-0.0036,0.0023,-0.000402,-0.003564,0.002603,0.963334864190012,-1.7041755864799,0.0632695834348355
108.6761369,34.2406573,350.494,178.79,0.82,-0.29,-1690297,5000624,3568744,0.002,0.001,-0.117,-0.0048,-0.0036,0.0023,-0.000402,-0.003564,0.002818,0.963343232034105,-1.70446152984166,0.0631050097442143
108.6761369,34.2406573,350.494,178.79,0.82,-0.29,-1690297,5000624,3568744,0.002,0.001,-0.118,0.006,-0.0038,0.0023,-0.000402,-0.003564,0.002818,0.962749644512195,-1.70422294085366,0.0628268951219512
108.6761369,34.2406573,350.447,178.79,0.82,-0.29,-1690297,5000624,3568744,0.002,0.001,-0.118,0.006,-0.0038,0.0023,0.000341,-0.00422,0.002444,0.963252218026796,-1.70427361997564,0.0631439275274056
108.6761369,34.2406573,350.447,178.79,0.82,-0.29,-1690297,5000624,3568744,0.002,0.001,-0.118,-0.0046,-0.0038,0.0023,0.000341,-0.00422,0.002444,0.962916951219512,-1.70447883719512,0.0633692725609756
108.6761369,34.2406573,350.447,178.79,0.82,-0.29,-1690297,5000624,3568744,0.002,0.001,-0.118,-0.0046,0.0072,0.0023,-0.002035,-0.002125,0.002929,0.963324187081048,-1.70444305789153,0.0628711474710542
108.6761369,34.2406573,350.393,178.79,0.82,-0.29,-1690297,5000624,3568743,0.002,0.001,-0.118,-0.0046,0.0072,0.0023,-0.002035,-0.002125,0.002929,0.963188587804878,-1.70438585,0.0627539390243902
108.6761369,34.2406573,350.393,178.79,0.82,-0.29,-1690297,5000624,3568743,0.002,0.001,-0.118,-0.0046,0.0072,0.0119,-0.00034,-0.004367,0.001895,0.96307630998782,-1.70452765712546,0.0631481327649208
108.6761368,34.2406573,350.34,178.79,0.82,-0.29,-1690297,5000624,3568743,0.002,0.001,-0.118,-0.0046,0.0072,0.0119,-0.00034,-0.004367,0.001895,0.963023926829268,-1.70441205792683,0.0630396
108.6761368,34.2406573,350.34,178.79,0.82,-0.29,-1690297,5000624,3568743,0.002,0.001,-0.119,-0.0046,0.0072,0.0023,0.001039,-0.003239,0.003197,0.96298354174284,-1.7042353345521,0.0632696489945155
108.6761368,34.2406572,350.286,178.79,0.82,-0.29,-1690297,5000624,3568743,0.002,0.001,-0.119,-0.0046,0.0072,0.0023,0.001039,-0.003239,0.003197,0.963108953714982,-1.70406949756395,0.0631398416565164
108.6761368,34.2406572,350.286,178.79,0.82,-0.29,-1690297,5000624,3568743,0.002,0,-0.119,0.0062,-0.0036,0.0023,0.000604,-0.003876,0.003018,0.963103467397928,-1.70453593053016,0.0632963747714808
108.6761368,34.2406572,350.238,178.79,0.82,-0.29,-1690297,5000624,3568743,0.002,0,-0.119,0.0062,-0.0036,0.0023,0.000604,-0.003876,0.003018,0.963129092513694,-1.70440037127206,0.0629730292148508
108.6761368,34.2406572,350.238,178.79,0.82,-0.29,-1690297,5000624,3568743,0.002,0.001,-0.12,0.0061,0.007,-0.0073,-0.000506,-0.004281,0.002115,0.962751781230957,-1.70424534064595,0.0627251541742839
108.6761368,34.2406572,350.184,178.79,0.82,-0.29,-1690297,5000624,3568743,0.002,0.001,-0.12,0.0061,0.007,-0.0073,-0.000506,-0.004281,0.002115,0.962746683760684,-1.70433809401709,0.0629817960927961
108.6761368,34.2406572,350.184,178.79,0.82,-0.29,-1690297,5000624,3568743,0.002,0.001,-0.12,-0.0048,0.0073,0.0022,0.002332,-0.003489,0.001203,0.96330962362972,-1.70436693057247,0.0629919652862363
108.6761368,34.2406572,350.136,178.79,0.82,-0.29,-1690297,5000624,3568743,0.002,0.001,-0.12,-0.0048,0.0073,0.0022,0.002332,-0.003489,0.001203,0.963315279707495,-1.704644519805,0.0628609658744668
108.6761368,34.2406572,350.136,178.79,0.82,-0.29,-1690297,5000624,3568743,0.002,0.001,-0.121,-0.0046,0.0072,-0.0073,-0.000172,-0.004452,0.001203,0.963112567682927,-1.70442381646341,0.0629894451219512
108.6761368,34.2406572,350.082,178.79,0.82,-0.29,-1690297,5000624,3568743,0.002,0.001,-0.121,-0.0046,0.0072,-0.0073,-0.000172,-0.004452,0.002531,0.963055474648748,-1.70440213500305,0.062975403787416
108.6761368,34.2406572,350.082,178.79,0.82,-0.29,-1690297,5000624,3568743,0.002,0.001,-0.121,0.0061,0.007,-0.0076,-0.000172,-0.004452,0.002531,0.963097497867154,-1.7043013150518,0.0628337233394271
108.6761368,34.2406572,350.082,178.79,0.82,-0.29,-1690297,5000624,3568743,0.002,0.001,-0.121,0.0061,0.007,-0.0076,-0.001307,-0.003287,0.002409,0.963003180158247,-1.70417742665855,0.0631976159464394
108.6761368,34.2406572,350.027,178.79,0.82,-0.29,-1690297,5000624,3568743,0.002,0.001,-0.122,-0.0048,0.0072,-0.0076,-0.001307,-0.003287,0.002409,0.963291880706026,-1.70413685209982,0.0631577054169202
108.6761367,34.2406572,350.027,178.79,0.82,-0.29,-1690297,5000624,3568743,0.002,0.001,-0.122,-0.0048,0.0072,0.0118,-0.001807,-0.004171,0.001778,0.963346271341463,-1.70438745365854,0.0631041170731707
108.6761367,34.2406572,349.972,178.79,0.82,-0.29,-1690297,5000624,3568743,0.002,0.001,-0.122,-0.0045,0.0073,0.0023,-0.001807,-0.004171,0.001778,0.963265454878049,-1.70432033780488,0.0629889932926829
108.6761367,34.2406572,349.972,178.79,0.82,-0.29,-1690297,5000624,3568743,0.002,0.001,-0.122,-0.0045,0.0073,0.0023,0.001154,-0.004331,0.002828,0.96272810304878,-1.70433122256098,0.0630071804878048
108.6761367,34.2406572,349.923,178.79,0.82,-0.29,-1690297,5000624,3568743,0.002,0.001,-0.122,-0.0045,0.0073,0.0023,0.001154,-0.004331,0.002828,0.962441083028083,-1.7047518015873,0.062980931013431
108.6761367,34.2406572,349.923,178.79,0.82,-0.29,-1690297,5000624,3568743,0.002,0.001,-0.122,-0.0045,0.0073,-0.0074,-0.001127,-0.002831,0.002818,0.962243898046398,-1.70445986630037,0.063040003052503
108.6761367,34.2406572,349.868,178.79,0.82,-0.29,-1690297,5000624,3568743,0.002,0.001,-0.122,-0.0045,0.0073,-0.0074,-0.001127,-0.002831,0.002818,0.963395507617307,-1.7042577361365,0.0628160975015234
108.6761367,34.2406572,349.868,178.79,0.82,-0.29,-1690297,5000624,3568743,0.002,0.001,-0.123,-0.0046,-0.0035,0.012,-0.000691,-0.002528,0.0028,0.963279703839122,-1.70426094759293,0.0628467733089579
108.6761367,34.2406571,349.813,178.79,0.82,-0.29,-1690297,5000624,3568743,0.002,0.001,-0.123,-0.0046,-0.0035,0.012,-0.000691,-0.002528,0.0028,0.963115818070818,-1.70429510866911,0.0630025256410256
108.6761367,34.2406571,349.813,178.79,0.82,-0.29,-1690297,5000624,3568743,0.002,0.001,-0.123,-0.0047,0.0071,0.0021,-0.000126,-0.003301,0.002505,0.963394121654501,-1.70429852676399,0.0629060170316301
108.6761367,34.2406571,349.757,178.79,0.82,-0.29,-1690297,5000624,3568743,0.002,0.001,-0.123,-0.0047,0.0071,0.0021,-0.000126,-0.003301,0.002505,0.963394881242387,-1.70434822838002,0.0630086869671132
108.6761367,34.2406571,349.757,178.79,0.82,-0.29,-1690297,5000624,3568743,0.002,0.001,-0.123,0.006,0.0068,0.0021,-0.000126,-0.003301,0.002505,0.96243372300183,-1.70442732153752,0.0629710524710189
108.6761367,34.2406571,349.757,178.79,0.82,-0.29,-1690297,5000624,3568743,0.002,0.001,-0.123,0.006,0.0068,-0.0172,0.001812,-0.00349,0.003129,0.963478624847747,-1.70434025883069,0.0628693824604141
108.6761367,34.2406571,349.708,178.79,0.82,-0.29,-1690297,5000624,3568743,0.002,0.001,-0.123,0.006,0.0068,-0.0172,0.001812,-0.00349,0.003129,0.963119608297743,-1.70416485112874,0.06320082733374
108.6761367,34.2406571,349.708,178.79,0.82,-0.29,-1690297,5000624,3568743,0.002,0,-0.124,0.006,-0.0038,-0.0073,0.000399,-0.003693,0.002484,0.963058835365854,-1.7046824945122,0.063056493902439
108.6761366,34.2406571,349.652,178.79,0.82,-0.29,-1690297,5000624,3568743,0.002,0,-0.124,0.006,-0.0038,-0.0073,0.000399,-0.003693,0.002484,0.963099907814408,-1.70440405067155,0.0630295
108.6761366,34.2406571,349.652,178.79,0.82,-0.29,-1690297,5000624,3568743,0.002,0.001,-0.124,-0.0045,0.0073,-0.0074,-0.000894,-0.003279,0.002401,0.963359747105424,-1.70446817854966,0.0629974984765387
108.6761366,34.2406571,349.595,178.79,0.82,-0.29,-1690297,5000624,3568743,0.002,0.001,-0.124,-0.0045,0.0073,-0.0074,-0.000894,-0.003279,0.002401,0.963076400730816,-1.7041691680877,0.0631634701583434
108.6761366,34.2406571,349.595,178.79,0.82,-0.29,-1690297,5000624,3568743,0.002,0.001,-0.125,0.0059,0.0073,0.0022,0.002414,-0.004155,0.002034,0.963310653284672,-1.70425396472019,0.0627798795620438
108.6761366,34.2406571,349.545,178.79,0.82,-0.29,-1690297,5000624,3568743,0.002,0.001,-0.125,0.0059,0.0073,0.0022,0.002414,-0.004155,0.002034,0.963078113414634,-1.70427771097561,0.0630243487804878
108.6761366,34.2406571,349.545,178.79,0.82,-0.29,-1690297,5000623,3568743,0.002,0.001,-0.125,0.0059,0.0074,0.0118,-0.000156,-0.004155,0.002034,0.963482667682927,-1.70475178841463,0.0629215682926829
108.6761366,34.2406571,349.489,178.79,0.82,-0.29,-1690297,5000623,3568743,0.002,0.001,-0.125,0.0059,0.0074,0.0118,-0.000156,-0.003359,0.002278,0.963559081607796,-1.70461313215591,0.062855984774665
108.6761366,34.2406571,349.489,178.79,0.82,-0.29,-1690297,5000623,3568743,0.002,0.001,-0.126,-0.0046,0.0074,0.0118,-0.000156,-0.003359,0.002278,0.963784123095673,-1.70470239670932,0.0628002065813528
108.6761366,34.2406571,349.489,178.79,0.82,-0.29,-1690297,5000623,3568743,0.002,0.001,-0.126,-0.0046,0.0071,-0.0075,0.000424,-0.003276,0.002747,0.963349745121951,-1.70475980182927,0.0628100262195121
108.6761366,34.2406571,349.432,178.79,0.82,-0.29,-1690297,5000623,3568743,0.002,0.001,-0.125,-0.0047,0.0071,-0.0075,0.000424,-0.003276,0.002747,0.962855582317073,-1.70447110853659,0.062612437804878
108.6761366,34.240657,349.432,178.79,0.82,-0.29,-1690297,5000623,3568743,0.002,0.001,-0.125,-0.0047,0.007,-0.0171,0.000343,-0.003093,0.002987,0.963567042047532,-1.704618007922,0.0631033449116392
108.6761366,34.240657,349.375,178.79,0.82,-0.29,-1690297,5000623,3568743,0.002,0.001,-0.125,-0.0047,0.007,-0.0171,0.000343,-0.003093,0.002987,0.963124051797684,-1.70435586959171,0.063279309567337
